{
    "resourceType": "Bundle",
    "type": "transaction",
    "entry": [
        {
            "resource": {
                "resourceType": "Patient",
                "id": "smart-7777702",
                "text": {
                    "div": "<div><p>Yolanda Warren</p></div>",
                    "status": "generated"
                },
                "identifier": [
                    {
                        "use": "usual",
                        "system": "http://hospital.smarthealthit.org",
                        "value": "7777702"
                    }
                ],
                "name": [
                    {
                        "use": "official",
                        "family": [
                            "Warren"
                        ],
                        "given": [
                            "Yolanda"
                        ]
                    }
                ],
                "gender": "female",
                "birthDate": "2008-10-01",
                "active": true
            },
            "request": {
                "method": "PUT",
                "url": "Patient/smart-7777702"
            }
        },
        {
            "resource": {
                "resourceType": "Encounter",
                "id": "smart-Encounter-984",
                "text": {
                    "div": "<div>2010-10-04: ambulatory encounter</div>",
                    "status": "generated"
                },
                "status": "finished",
                "class": "ambulatory",
                "patient": {
                    "reference": "Patient/smart-7777702"
                },
                "period": {
                    "start": "2010-10-04",
                    "end": "2010-10-04"
                }
            },
            "request": {
                "method": "PUT",
                "url": "Encounter/smart-Encounter-984"
            }
        },
        {
            "resource": {
                "resourceType": "Encounter",
                "id": "smart-Encounter-985",
                "text": {
                    "div": "<div>2010-11-10: ambulatory encounter</div>",
                    "status": "generated"
                },
                "status": "finished",
                "class": "ambulatory",
                "patient": {
                    "reference": "Patient/smart-7777702"
                },
                "period": {
                    "start": "2010-11-10",
                    "end": "2010-11-10"
                }
            },
            "request": {
                "method": "PUT",
                "url": "Encounter/smart-Encounter-985"
            }
        },
        {
            "resource": {
                "resourceType": "Encounter",
                "id": "smart-Encounter-986",
                "text": {
                    "div": "<div>2011-04-05: ambulatory encounter</div>",
                    "status": "generated"
                },
                "status": "finished",
                "class": "ambulatory",
                "patient": {
                    "reference": "Patient/smart-7777702"
                },
                "period": {
                    "start": "2011-04-05",
                    "end": "2011-04-05"
                }
            },
            "request": {
                "method": "PUT",
                "url": "Encounter/smart-Encounter-986"
            }
        },
        {
            "resource": {
                "resourceType": "Encounter",
                "id": "smart-Encounter-987",
                "text": {
                    "div": "<div>2011-05-11: ambulatory encounter</div>",
                    "status": "generated"
                },
                "status": "finished",
                "class": "ambulatory",
                "patient": {
                    "reference": "Patient/smart-7777702"
                },
                "period": {
                    "start": "2011-05-11",
                    "end": "2011-05-11"
                }
            },
            "request": {
                "method": "PUT",
                "url": "Encounter/smart-Encounter-987"
            }
        },
        {
            "resource": {
                "resourceType": "Encounter",
                "id": "smart-Encounter-988",
                "text": {
                    "div": "<div>2011-06-17: ambulatory encounter</div>",
                    "status": "generated"
                },
                "status": "finished",
                "class": "ambulatory",
                "patient": {
                    "reference": "Patient/smart-7777702"
                },
                "period": {
                    "start": "2011-06-17",
                    "end": "2011-06-17"
                }
            },
            "request": {
                "method": "PUT",
                "url": "Encounter/smart-Encounter-988"
            }
        },
        {
            "resource": {
                "resourceType": "Encounter",
                "id": "smart-Encounter-989",
                "text": {
                    "div": "<div>2011-07-23: ambulatory encounter</div>",
                    "status": "generated"
                },
                "status": "finished",
                "class": "ambulatory",
                "patient": {
                    "reference": "Patient/smart-7777702"
                },
                "period": {
                    "start": "2011-07-23",
                    "end": "2011-07-23"
                }
            },
            "request": {
                "method": "PUT",
                "url": "Encounter/smart-Encounter-989"
            }
        },
        {
            "resource": {
                "resourceType": "Encounter",
                "id": "smart-Encounter-990",
                "text": {
                    "div": "<div>2011-08-29: ambulatory encounter</div>",
                    "status": "generated"
                },
                "status": "finished",
                "class": "ambulatory",
                "patient": {
                    "reference": "Patient/smart-7777702"
                },
                "period": {
                    "start": "2011-08-29",
                    "end": "2011-08-29"
                }
            },
            "request": {
                "method": "PUT",
                "url": "Encounter/smart-Encounter-990"
            }
        },
        {
            "resource": {
                "resourceType": "Encounter",
                "id": "smart-Encounter-991",
                "text": {
                    "div": "<div>2011-10-04: ambulatory encounter</div>",
                    "status": "generated"
                },
                "status": "finished",
                "class": "ambulatory",
                "patient": {
                    "reference": "Patient/smart-7777702"
                },
                "period": {
                    "start": "2011-10-04",
                    "end": "2011-10-04"
                }
            },
            "request": {
                "method": "PUT",
                "url": "Encounter/smart-Encounter-991"
            }
        },
        {
            "resource": {
                "resourceType": "Encounter",
                "id": "smart-Encounter-992",
                "text": {
                    "div": "<div>2011-11-10: ambulatory encounter</div>",
                    "status": "generated"
                },
                "status": "finished",
                "class": "ambulatory",
                "patient": {
                    "reference": "Patient/smart-7777702"
                },
                "period": {
                    "start": "2011-11-10",
                    "end": "2011-11-10"
                }
            },
            "request": {
                "method": "PUT",
                "url": "Encounter/smart-Encounter-992"
            }
        },
        {
            "resource": {
                "resourceType": "Encounter",
                "id": "smart-Encounter-993",
                "text": {
                    "div": "<div>2011-12-16: ambulatory encounter</div>",
                    "status": "generated"
                },
                "status": "finished",
                "class": "ambulatory",
                "patient": {
                    "reference": "Patient/smart-7777702"
                },
                "period": {
                    "start": "2011-12-16",
                    "end": "2011-12-16"
                }
            },
            "request": {
                "method": "PUT",
                "url": "Encounter/smart-Encounter-993"
            }
        },
        {
            "resource": {
                "resourceType": "Encounter",
                "id": "smart-Encounter-994",
                "text": {
                    "div": "<div>2012-05-10: ambulatory encounter</div>",
                    "status": "generated"
                },
                "status": "finished",
                "class": "ambulatory",
                "patient": {
                    "reference": "Patient/smart-7777702"
                },
                "period": {
                    "start": "2012-05-10",
                    "end": "2012-05-10"
                }
            },
            "request": {
                "method": "PUT",
                "url": "Encounter/smart-Encounter-994"
            }
        },
        {
            "resource": {
                "resourceType": "Encounter",
                "id": "smart-Encounter-995",
                "text": {
                    "div": "<div>2012-10-03: ambulatory encounter</div>",
                    "status": "generated"
                },
                "status": "finished",
                "class": "ambulatory",
                "patient": {
                    "reference": "Patient/smart-7777702"
                },
                "period": {
                    "start": "2012-10-03",
                    "end": "2012-10-03"
                }
            },
            "request": {
                "method": "PUT",
                "url": "Encounter/smart-Encounter-995"
            }
        },
        {
            "resource": {
                "resourceType": "Encounter",
                "id": "smart-Encounter-996",
                "text": {
                    "div": "<div>2013-02-26: ambulatory encounter</div>",
                    "status": "generated"
                },
                "status": "finished",
                "class": "ambulatory",
                "patient": {
                    "reference": "Patient/smart-7777702"
                },
                "period": {
                    "start": "2013-02-26",
                    "end": "2013-02-26"
                }
            },
            "request": {
                "method": "PUT",
                "url": "Encounter/smart-Encounter-996"
            }
        },
        {
            "resource": {
                "resourceType": "Observation",
                "id": "smart-Observation-984-height",
                "text": {
                    "div": "<div>2010-10-04: height = 78.5 cm</div>",
                    "status": "generated"
                },
                "category": {
                    "coding": [
                        {
                            "system": "http://hl7.org/fhir/observation-category",
                            "code": "vital-signs",
                            "display": "Vital Signs"
                        }
                    ],
                    "text": "Vital Signs"
                },
                "code": {
                    "coding": [
                        {
                            "system": "http://loinc.org",
                            "code": "8302-2",
                            "display": "height"
                        }
                    ],
                    "text": "height"
                },
                "valueQuantity": {
                    "value": 78.5,
                    "system": "http://unitsofmeasure.org",
                    "code": "cm"
                },
                "status": "final",
                "subject": {
                    "reference": "Patient/smart-7777702"
                },
                "encounter": {
                    "reference": "Encounter/smart-Encounter-984"
                }
            },
            "request": {
                "method": "PUT",
                "url": "Observation/smart-Observation-984-height"
            }
        },
        {
            "resource": {
                "resourceType": "Observation",
                "id": "smart-Observation-984-weight",
                "text": {
                    "div": "<div>2010-10-04: weight = 9.8 kg</div>",
                    "status": "generated"
                },
                "category": {
                    "coding": [
                        {
                            "system": "http://hl7.org/fhir/observation-category",
                            "code": "vital-signs",
                            "display": "Vital Signs"
                        }
                    ],
                    "text": "Vital Signs"
                },
                "code": {
                    "coding": [
                        {
                            "system": "http://loinc.org",
                            "code": "3141-9",
                            "display": "weight"
                        }
                    ],
                    "text": "weight"
                },
                "valueQuantity": {
                    "value": 9.8,
                    "system": "http://unitsofmeasure.org",
                    "code": "kg"
                },
                "status": "final",
                "subject": {
                    "reference": "Patient/smart-7777702"
                },
                "encounter": {
                    "reference": "Encounter/smart-Encounter-984"
                }
            },
            "request": {
                "method": "PUT",
                "url": "Observation/smart-Observation-984-weight"
            }
        },
        {
            "resource": {
                "resourceType": "Observation",
                "id": "smart-Observation-985-height",
                "text": {
                    "div": "<div>2010-11-10: height = 78.5 cm</div>",
                    "status": "generated"
                },
                "category": {
                    "coding": [
                        {
                            "system": "http://hl7.org/fhir/observation-category",
                            "code": "vital-signs",
                            "display": "Vital Signs"
                        }
                    ],
                    "text": "Vital Signs"
                },
                "code": {
                    "coding": [
                        {
                            "system": "http://loinc.org",
                            "code": "8302-2",
                            "display": "height"
                        }
                    ],
                    "text": "height"
                },
                "valueQuantity": {
                    "value": 78.5,
                    "system": "http://unitsofmeasure.org",
                    "code": "cm"
                },
                "status": "final",
                "subject": {
                    "reference": "Patient/smart-7777702"
                },
                "encounter": {
                    "reference": "Encounter/smart-Encounter-985"
                }
            },
            "request": {
                "method": "PUT",
                "url": "Observation/smart-Observation-985-height"
            }
        },
        {
            "resource": {
                "resourceType": "Observation",
                "id": "smart-Observation-985-weight",
                "text": {
                    "div": "<div>2010-11-10: weight = 9.8 kg</div>",
                    "status": "generated"
                },
                "category": {
                    "coding": [
                        {
                            "system": "http://hl7.org/fhir/observation-category",
                            "code": "vital-signs",
                            "display": "Vital Signs"
                        }
                    ],
                    "text": "Vital Signs"
                },
                "code": {
                    "coding": [
                        {
                            "system": "http://loinc.org",
                            "code": "3141-9",
                            "display": "weight"
                        }
                    ],
                    "text": "weight"
                },
                "valueQuantity": {
                    "value": 9.8,
                    "system": "http://unitsofmeasure.org",
                    "code": "kg"
                },
                "status": "final",
                "subject": {
                    "reference": "Patient/smart-7777702"
                },
                "encounter": {
                    "reference": "Encounter/smart-Encounter-985"
                }
            },
            "request": {
                "method": "PUT",
                "url": "Observation/smart-Observation-985-weight"
            }
        },
        {
            "resource": {
                "resourceType": "Observation",
                "id": "smart-Observation-986-height",
                "text": {
                    "div": "<div>2011-04-05: height = 82.3 cm</div>",
                    "status": "generated"
                },
                "category": {
                    "coding": [
                        {
                            "system": "http://hl7.org/fhir/observation-category",
                            "code": "vital-signs",
                            "display": "Vital Signs"
                        }
                    ],
                    "text": "Vital Signs"
                },
                "code": {
                    "coding": [
                        {
                            "system": "http://loinc.org",
                            "code": "8302-2",
                            "display": "height"
                        }
                    ],
                    "text": "height"
                },
                "valueQuantity": {
                    "value": 82.3,
                    "system": "http://unitsofmeasure.org",
                    "code": "cm"
                },
                "status": "final",
                "subject": {
                    "reference": "Patient/smart-7777702"
                },
                "encounter": {
                    "reference": "Encounter/smart-Encounter-986"
                }
            },
            "request": {
                "method": "PUT",
                "url": "Observation/smart-Observation-986-height"
            }
        },
        {
            "resource": {
                "resourceType": "Observation",
                "id": "smart-Observation-986-weight",
                "text": {
                    "div": "<div>2011-04-05: weight = 10.9 kg</div>",
                    "status": "generated"
                },
                "category": {
                    "coding": [
                        {
                            "system": "http://hl7.org/fhir/observation-category",
                            "code": "vital-signs",
                            "display": "Vital Signs"
                        }
                    ],
                    "text": "Vital Signs"
                },
                "code": {
                    "coding": [
                        {
                            "system": "http://loinc.org",
                            "code": "3141-9",
                            "display": "weight"
                        }
                    ],
                    "text": "weight"
                },
                "valueQuantity": {
                    "value": 10.9,
                    "system": "http://unitsofmeasure.org",
                    "code": "kg"
                },
                "status": "final",
                "subject": {
                    "reference": "Patient/smart-7777702"
                },
                "encounter": {
                    "reference": "Encounter/smart-Encounter-986"
                }
            },
            "request": {
                "method": "PUT",
                "url": "Observation/smart-Observation-986-weight"
            }
        },
        {
            "resource": {
                "resourceType": "Observation",
                "id": "smart-Observation-987-height",
                "text": {
                    "div": "<div>2011-05-11: height = 82.3 cm</div>",
                    "status": "generated"
                },
                "category": {
                    "coding": [
                        {
                            "system": "http://hl7.org/fhir/observation-category",
                            "code": "vital-signs",
                            "display": "Vital Signs"
                        }
                    ],
                    "text": "Vital Signs"
                },
                "code": {
                    "coding": [
                        {
                            "system": "http://loinc.org",
                            "code": "8302-2",
                            "display": "height"
                        }
                    ],
                    "text": "height"
                },
                "valueQuantity": {
                    "value": 82.3,
                    "system": "http://unitsofmeasure.org",
                    "code": "cm"
                },
                "status": "final",
                "subject": {
                    "reference": "Patient/smart-7777702"
                },
                "encounter": {
                    "reference": "Encounter/smart-Encounter-987"
                }
            },
            "request": {
                "method": "PUT",
                "url": "Observation/smart-Observation-987-height"
            }
        },
        {
            "resource": {
                "resourceType": "Observation",
                "id": "smart-Observation-987-weight",
                "text": {
                    "div": "<div>2011-05-11: weight = 11.2 kg</div>",
                    "status": "generated"
                },
                "category": {
                    "coding": [
                        {
                            "system": "http://hl7.org/fhir/observation-category",
                            "code": "vital-signs",
                            "display": "Vital Signs"
                        }
                    ],
                    "text": "Vital Signs"
                },
                "code": {
                    "coding": [
                        {
                            "system": "http://loinc.org",
                            "code": "3141-9",
                            "display": "weight"
                        }
                    ],
                    "text": "weight"
                },
                "valueQuantity": {
                    "value": 11.2,
                    "system": "http://unitsofmeasure.org",
                    "code": "kg"
                },
                "status": "final",
                "subject": {
                    "reference": "Patient/smart-7777702"
                },
                "encounter": {
                    "reference": "Encounter/smart-Encounter-987"
                }
            },
            "request": {
                "method": "PUT",
                "url": "Observation/smart-Observation-987-weight"
            }
        },
        {
            "resource": {
                "resourceType": "Observation",
                "id": "smart-Observation-988-height",
                "text": {
                    "div": "<div>2011-06-17: height = 84.0 cm</div>",
                    "status": "generated"
                },
                "category": {
                    "coding": [
                        {
                            "system": "http://hl7.org/fhir/observation-category",
                            "code": "vital-signs",
                            "display": "Vital Signs"
                        }
                    ],
                    "text": "Vital Signs"
                },
                "code": {
                    "coding": [
                        {
                            "system": "http://loinc.org",
                            "code": "8302-2",
                            "display": "height"
                        }
                    ],
                    "text": "height"
                },
                "valueQuantity": {
                    "value": 84,
                    "system": "http://unitsofmeasure.org",
                    "code": "cm"
                },
                "status": "final",
                "subject": {
                    "reference": "Patient/smart-7777702"
                },
                "encounter": {
                    "reference": "Encounter/smart-Encounter-988"
                }
            },
            "request": {
                "method": "PUT",
                "url": "Observation/smart-Observation-988-height"
            }
        },
        {
            "resource": {
                "resourceType": "Observation",
                "id": "smart-Observation-988-weight",
                "text": {
                    "div": "<div>2011-06-17: weight = 11.2 kg</div>",
                    "status": "generated"
                },
                "category": {
                    "coding": [
                        {
                            "system": "http://hl7.org/fhir/observation-category",
                            "code": "vital-signs",
                            "display": "Vital Signs"
                        }
                    ],
                    "text": "Vital Signs"
                },
                "code": {
                    "coding": [
                        {
                            "system": "http://loinc.org",
                            "code": "3141-9",
                            "display": "weight"
                        }
                    ],
                    "text": "weight"
                },
                "valueQuantity": {
                    "value": 11.2,
                    "system": "http://unitsofmeasure.org",
                    "code": "kg"
                },
                "status": "final",
                "subject": {
                    "reference": "Patient/smart-7777702"
                },
                "encounter": {
                    "reference": "Encounter/smart-Encounter-988"
                }
            },
            "request": {
                "method": "PUT",
                "url": "Observation/smart-Observation-988-weight"
            }
        },
        {
            "resource": {
                "resourceType": "Observation",
                "id": "smart-Observation-989-height",
                "text": {
                    "div": "<div>2011-07-23: height = 83.5 cm</div>",
                    "status": "generated"
                },
                "category": {
                    "coding": [
                        {
                            "system": "http://hl7.org/fhir/observation-category",
                            "code": "vital-signs",
                            "display": "Vital Signs"
                        }
                    ],
                    "text": "Vital Signs"
                },
                "code": {
                    "coding": [
                        {
                            "system": "http://loinc.org",
                            "code": "8302-2",
                            "display": "height"
                        }
                    ],
                    "text": "height"
                },
                "valueQuantity": {
                    "value": 83.5,
                    "system": "http://unitsofmeasure.org",
                    "code": "cm"
                },
                "status": "final",
                "subject": {
                    "reference": "Patient/smart-7777702"
                },
                "encounter": {
                    "reference": "Encounter/smart-Encounter-989"
                }
            },
            "request": {
                "method": "PUT",
                "url": "Observation/smart-Observation-989-height"
            }
        },
        {
            "resource": {
                "resourceType": "Observation",
                "id": "smart-Observation-989-weight",
                "text": {
                    "div": "<div>2011-07-23: weight = 11.7 kg</div>",
                    "status": "generated"
                },
                "category": {
                    "coding": [
                        {
                            "system": "http://hl7.org/fhir/observation-category",
                            "code": "vital-signs",
                            "display": "Vital Signs"
                        }
                    ],
                    "text": "Vital Signs"
                },
                "code": {
                    "coding": [
                        {
                            "system": "http://loinc.org",
                            "code": "3141-9",
                            "display": "weight"
                        }
                    ],
                    "text": "weight"
                },
                "valueQuantity": {
                    "value": 11.7,
                    "system": "http://unitsofmeasure.org",
                    "code": "kg"
                },
                "status": "final",
                "subject": {
                    "reference": "Patient/smart-7777702"
                },
                "encounter": {
                    "reference": "Encounter/smart-Encounter-989"
                }
            },
            "request": {
                "method": "PUT",
                "url": "Observation/smart-Observation-989-weight"
            }
        },
        {
            "resource": {
                "resourceType": "Observation",
                "id": "smart-Observation-990-height",
                "text": {
                    "div": "<div>2011-08-29: height = 85.5 cm</div>",
                    "status": "generated"
                },
                "category": {
                    "coding": [
                        {
                            "system": "http://hl7.org/fhir/observation-category",
                            "code": "vital-signs",
                            "display": "Vital Signs"
                        }
                    ],
                    "text": "Vital Signs"
                },
                "code": {
                    "coding": [
                        {
                            "system": "http://loinc.org",
                            "code": "8302-2",
                            "display": "height"
                        }
                    ],
                    "text": "height"
                },
                "valueQuantity": {
                    "value": 85.5,
                    "system": "http://unitsofmeasure.org",
                    "code": "cm"
                },
                "status": "final",
                "subject": {
                    "reference": "Patient/smart-7777702"
                },
                "encounter": {
                    "reference": "Encounter/smart-Encounter-990"
                }
            },
            "request": {
                "method": "PUT",
                "url": "Observation/smart-Observation-990-height"
            }
        },
        {
            "resource": {
                "resourceType": "Observation",
                "id": "smart-Observation-990-weight",
                "text": {
                    "div": "<div>2011-08-29: weight = 11.0 kg</div>",
                    "status": "generated"
                },
                "category": {
                    "coding": [
                        {
                            "system": "http://hl7.org/fhir/observation-category",
                            "code": "vital-signs",
                            "display": "Vital Signs"
                        }
                    ],
                    "text": "Vital Signs"
                },
                "code": {
                    "coding": [
                        {
                            "system": "http://loinc.org",
                            "code": "3141-9",
                            "display": "weight"
                        }
                    ],
                    "text": "weight"
                },
                "valueQuantity": {
                    "value": 11,
                    "system": "http://unitsofmeasure.org",
                    "code": "kg"
                },
                "status": "final",
                "subject": {
                    "reference": "Patient/smart-7777702"
                },
                "encounter": {
                    "reference": "Encounter/smart-Encounter-990"
                }
            },
            "request": {
                "method": "PUT",
                "url": "Observation/smart-Observation-990-weight"
            }
        },
        {
            "resource": {
                "resourceType": "Observation",
                "id": "smart-Observation-991-height",
                "text": {
                    "div": "<div>2011-10-04: height = 86.3 cm</div>",
                    "status": "generated"
                },
                "category": {
                    "coding": [
                        {
                            "system": "http://hl7.org/fhir/observation-category",
                            "code": "vital-signs",
                            "display": "Vital Signs"
                        }
                    ],
                    "text": "Vital Signs"
                },
                "code": {
                    "coding": [
                        {
                            "system": "http://loinc.org",
                            "code": "8302-2",
                            "display": "height"
                        }
                    ],
                    "text": "height"
                },
                "valueQuantity": {
                    "value": 86.3,
                    "system": "http://unitsofmeasure.org",
                    "code": "cm"
                },
                "status": "final",
                "subject": {
                    "reference": "Patient/smart-7777702"
                },
                "encounter": {
                    "reference": "Encounter/smart-Encounter-991"
                }
            },
            "request": {
                "method": "PUT",
                "url": "Observation/smart-Observation-991-height"
            }
        },
        {
            "resource": {
                "resourceType": "Observation",
                "id": "smart-Observation-991-weight",
                "text": {
                    "div": "<div>2011-10-04: weight = 11.3 kg</div>",
                    "status": "generated"
                },
                "category": {
                    "coding": [
                        {
                            "system": "http://hl7.org/fhir/observation-category",
                            "code": "vital-signs",
                            "display": "Vital Signs"
                        }
                    ],
                    "text": "Vital Signs"
                },
                "code": {
                    "coding": [
                        {
                            "system": "http://loinc.org",
                            "code": "3141-9",
                            "display": "weight"
                        }
                    ],
                    "text": "weight"
                },
                "valueQuantity": {
                    "value": 11.3,
                    "system": "http://unitsofmeasure.org",
                    "code": "kg"
                },
                "status": "final",
                "subject": {
                    "reference": "Patient/smart-7777702"
                },
                "encounter": {
                    "reference": "Encounter/smart-Encounter-991"
                }
            },
            "request": {
                "method": "PUT",
                "url": "Observation/smart-Observation-991-weight"
            }
        },
        {
            "resource": {
                "resourceType": "Observation",
                "id": "smart-Observation-992-height",
                "text": {
                    "div": "<div>2011-11-10: height = 86.3 cm</div>",
                    "status": "generated"
                },
                "category": {
                    "coding": [
                        {
                            "system": "http://hl7.org/fhir/observation-category",
                            "code": "vital-signs",
                            "display": "Vital Signs"
                        }
                    ],
                    "text": "Vital Signs"
                },
                "code": {
                    "coding": [
                        {
                            "system": "http://loinc.org",
                            "code": "8302-2",
                            "display": "height"
                        }
                    ],
                    "text": "height"
                },
                "valueQuantity": {
                    "value": 86.3,
                    "system": "http://unitsofmeasure.org",
                    "code": "cm"
                },
                "status": "final",
                "subject": {
                    "reference": "Patient/smart-7777702"
                },
                "encounter": {
                    "reference": "Encounter/smart-Encounter-992"
                }
            },
            "request": {
                "method": "PUT",
                "url": "Observation/smart-Observation-992-height"
            }
        },
        {
            "resource": {
                "resourceType": "Observation",
                "id": "smart-Observation-992-weight",
                "text": {
                    "div": "<div>2011-11-10: weight = 11.9 kg</div>",
                    "status": "generated"
                },
                "category": {
                    "coding": [
                        {
                            "system": "http://hl7.org/fhir/observation-category",
                            "code": "vital-signs",
                            "display": "Vital Signs"
                        }
                    ],
                    "text": "Vital Signs"
                },
                "code": {
                    "coding": [
                        {
                            "system": "http://loinc.org",
                            "code": "3141-9",
                            "display": "weight"
                        }
                    ],
                    "text": "weight"
                },
                "valueQuantity": {
                    "value": 11.9,
                    "system": "http://unitsofmeasure.org",
                    "code": "kg"
                },
                "status": "final",
                "subject": {
                    "reference": "Patient/smart-7777702"
                },
                "encounter": {
                    "reference": "Encounter/smart-Encounter-992"
                }
            },
            "request": {
                "method": "PUT",
                "url": "Observation/smart-Observation-992-weight"
            }
        },
        {
            "resource": {
                "resourceType": "Observation",
                "id": "smart-Observation-993-height",
                "text": {
                    "div": "<div>2011-12-16: height = 86.7 cm</div>",
                    "status": "generated"
                },
                "category": {
                    "coding": [
                        {
                            "system": "http://hl7.org/fhir/observation-category",
                            "code": "vital-signs",
                            "display": "Vital Signs"
                        }
                    ],
                    "text": "Vital Signs"
                },
                "code": {
                    "coding": [
                        {
                            "system": "http://loinc.org",
                            "code": "8302-2",
                            "display": "height"
                        }
                    ],
                    "text": "height"
                },
                "valueQuantity": {
                    "value": 86.7,
                    "system": "http://unitsofmeasure.org",
                    "code": "cm"
                },
                "status": "final",
                "subject": {
                    "reference": "Patient/smart-7777702"
                },
                "encounter": {
                    "reference": "Encounter/smart-Encounter-993"
                }
            },
            "request": {
                "method": "PUT",
                "url": "Observation/smart-Observation-993-height"
            }
        },
        {
            "resource": {
                "resourceType": "Observation",
                "id": "smart-Observation-993-weight",
                "text": {
                    "div": "<div>2011-12-16: weight = 12.0 kg</div>",
                    "status": "generated"
                },
                "category": {
                    "coding": [
                        {
                            "system": "http://hl7.org/fhir/observation-category",
                            "code": "vital-signs",
                            "display": "Vital Signs"
                        }
                    ],
                    "text": "Vital Signs"
                },
                "code": {
                    "coding": [
                        {
                            "system": "http://loinc.org",
                            "code": "3141-9",
                            "display": "weight"
                        }
                    ],
                    "text": "weight"
                },
                "valueQuantity": {
                    "value": 12,
                    "system": "http://unitsofmeasure.org",
                    "code": "kg"
                },
                "status": "final",
                "subject": {
                    "reference": "Patient/smart-7777702"
                },
                "encounter": {
                    "reference": "Encounter/smart-Encounter-993"
                }
            },
            "request": {
                "method": "PUT",
                "url": "Observation/smart-Observation-993-weight"
            }
        },
        {
            "resource": {
                "resourceType": "Observation",
                "id": "smart-Observation-994-height",
                "text": {
                    "div": "<div>2012-05-10: height = 90.9 cm</div>",
                    "status": "generated"
                },
                "category": {
                    "coding": [
                        {
                            "system": "http://hl7.org/fhir/observation-category",
                            "code": "vital-signs",
                            "display": "Vital Signs"
                        }
                    ],
                    "text": "Vital Signs"
                },
                "code": {
                    "coding": [
                        {
                            "system": "http://loinc.org",
                            "code": "8302-2",
                            "display": "height"
                        }
                    ],
                    "text": "height"
                },
                "valueQuantity": {
                    "value": 90.9,
                    "system": "http://unitsofmeasure.org",
                    "code": "cm"
                },
                "status": "final",
                "subject": {
                    "reference": "Patient/smart-7777702"
                },
                "encounter": {
                    "reference": "Encounter/smart-Encounter-994"
                }
            },
            "request": {
                "method": "PUT",
                "url": "Observation/smart-Observation-994-height"
            }
        },
        {
            "resource": {
                "resourceType": "Observation",
                "id": "smart-Observation-994-weight",
                "text": {
                    "div": "<div>2012-05-10: weight = 12.7 kg</div>",
                    "status": "generated"
                },
                "category": {
                    "coding": [
                        {
                            "system": "http://hl7.org/fhir/observation-category",
                            "code": "vital-signs",
                            "display": "Vital Signs"
                        }
                    ],
                    "text": "Vital Signs"
                },
                "code": {
                    "coding": [
                        {
                            "system": "http://loinc.org",
                            "code": "3141-9",
                            "display": "weight"
                        }
                    ],
                    "text": "weight"
                },
                "valueQuantity": {
                    "value": 12.7,
                    "system": "http://unitsofmeasure.org",
                    "code": "kg"
                },
                "status": "final",
                "subject": {
                    "reference": "Patient/smart-7777702"
                },
                "encounter": {
                    "reference": "Encounter/smart-Encounter-994"
                }
            },
            "request": {
                "method": "PUT",
                "url": "Observation/smart-Observation-994-weight"
            }
        },
        {
            "resource": {
                "resourceType": "Observation",
                "id": "smart-Observation-995-height",
                "text": {
                    "div": "<div>2012-10-03: height = 95.4 cm</div>",
                    "status": "generated"
                },
                "category": {
                    "coding": [
                        {
                            "system": "http://hl7.org/fhir/observation-category",
                            "code": "vital-signs",
                            "display": "Vital Signs"
                        }
                    ],
                    "text": "Vital Signs"
                },
                "code": {
                    "coding": [
                        {
                            "system": "http://loinc.org",
                            "code": "8302-2",
                            "display": "height"
                        }
                    ],
                    "text": "height"
                },
                "valueQuantity": {
                    "value": 95.4,
                    "system": "http://unitsofmeasure.org",
                    "code": "cm"
                },
                "status": "final",
                "subject": {
                    "reference": "Patient/smart-7777702"
                },
                "encounter": {
                    "reference": "Encounter/smart-Encounter-995"
                }
            },
            "request": {
                "method": "PUT",
                "url": "Observation/smart-Observation-995-height"
            }
        },
        {
            "resource": {
                "resourceType": "Observation",
                "id": "smart-Observation-995-weight",
                "text": {
                    "div": "<div>2012-10-03: weight = 13.2 kg</div>",
                    "status": "generated"
                },
                "category": {
                    "coding": [
                        {
                            "system": "http://hl7.org/fhir/observation-category",
                            "code": "vital-signs",
                            "display": "Vital Signs"
                        }
                    ],
                    "text": "Vital Signs"
                },
                "code": {
                    "coding": [
                        {
                            "system": "http://loinc.org",
                            "code": "3141-9",
                            "display": "weight"
                        }
                    ],
                    "text": "weight"
                },
                "valueQuantity": {
                    "value": 13.2,
                    "system": "http://unitsofmeasure.org",
                    "code": "kg"
                },
                "status": "final",
                "subject": {
                    "reference": "Patient/smart-7777702"
                },
                "encounter": {
                    "reference": "Encounter/smart-Encounter-995"
                }
            },
            "request": {
                "method": "PUT",
                "url": "Observation/smart-Observation-995-weight"
            }
        },
        {
            "resource": {
                "resourceType": "Observation",
                "id": "smart-Observation-996-height",
                "text": {
                    "div": "<div>2013-02-26: height = 98.8 cm</div>",
                    "status": "generated"
                },
                "category": {
                    "coding": [
                        {
                            "system": "http://hl7.org/fhir/observation-category",
                            "code": "vital-signs",
                            "display": "Vital Signs"
                        }
                    ],
                    "text": "Vital Signs"
                },
                "code": {
                    "coding": [
                        {
                            "system": "http://loinc.org",
                            "code": "8302-2",
                            "display": "height"
                        }
                    ],
                    "text": "height"
                },
                "valueQuantity": {
                    "value": 98.8,
                    "system": "http://unitsofmeasure.org",
                    "code": "cm"
                },
                "status": "final",
                "subject": {
                    "reference": "Patient/smart-7777702"
                },
                "encounter": {
                    "reference": "Encounter/smart-Encounter-996"
                }
            },
            "request": {
                "method": "PUT",
                "url": "Observation/smart-Observation-996-height"
            }
        },
        {
            "resource": {
                "resourceType": "Observation",
                "id": "smart-Observation-996-weight",
                "text": {
                    "div": "<div>2013-02-26: weight = 14.4 kg</div>",
                    "status": "generated"
                },
                "category": {
                    "coding": [
                        {
                            "system": "http://hl7.org/fhir/observation-category",
                            "code": "vital-signs",
                            "display": "Vital Signs"
                        }
                    ],
                    "text": "Vital Signs"
                },
                "code": {
                    "coding": [
                        {
                            "system": "http://loinc.org",
                            "code": "3141-9",
                            "display": "weight"
                        }
                    ],
                    "text": "weight"
                },
                "valueQuantity": {
                    "value": 14.4,
                    "system": "http://unitsofmeasure.org",
                    "code": "kg"
                },
                "status": "final",
                "subject": {
                    "reference": "Patient/smart-7777702"
                },
                "encounter": {
                    "reference": "Encounter/smart-Encounter-996"
                }
            },
            "request": {
                "method": "PUT",
                "url": "Observation/smart-Observation-996-weight"
            }
        },
        {
            "resource": {
                "resourceType": "FamilyMemberHistory",
                "id": "smart-FamilyMemberHistory-9",
                "extension": [
                    {
                        "url": "http://fhir-registry.smarthealthit.org/StructureDefinition/family-history#height",
                        "valueQuantity": {
                            "value": 177,
                            "system": "http://unitsofmeasure.org",
                            "code": "cm"
                        }
                    }
                ],
                "text": {
                    "div": "<div>Data on patient's Father</div>",
                    "status": "generated"
                },
                "patient": {
                    "reference": "Patient/smart-7777702"
                },
                "relationship": {
                    "coding": [
                        {
                            "system": "http://hl7.org/fhir/v3/RoleCode",
                            "code": "FTH",
                            "display": "father"
                        }
                    ]
                }
            },
            "request": {
                "method": "PUT",
                "url": "FamilyMemberHistory/smart-FamilyMemberHistory-9"
            }
        },
        {
            "resource": {
                "resourceType": "FamilyMemberHistory",
                "id": "smart-FamilyMemberHistory-10",
                "extension": [
                    {
                        "url": "http://fhir-registry.smarthealthit.org/StructureDefinition/family-history#height",
                        "valueQuantity": {
                            "value": 164.5,
                            "system": "http://unitsofmeasure.org",
                            "code": "cm"
                        }
                    }
                ],
                "text": {
                    "div": "<div>Data on patient's Mother</div>",
                    "status": "generated"
                },
                "patient": {
                    "reference": "Patient/smart-7777702"
                },
                "relationship": {
                    "coding": [
                        {
                            "system": "http://hl7.org/fhir/v3/RoleCode",
                            "code": "MTH",
                            "display": "mother"
                        }
                    ]
                }
            },
            "request": {
                "method": "PUT",
                "url": "FamilyMemberHistory/smart-FamilyMemberHistory-10"
            }
        }
    ]
}