{
    "resourceType": "Bundle",
    "type": "transaction",
    "entry": [
        {
            "resource": {
                "resourceType": "Patient",
                "id": "smart-7777705",
                "text": {
                    "div": "<div><p>Angela Montgomery</p></div>",
                    "status": "generated"
                },
                "identifier": [
                    {
                        "use": "usual",
                        "system": "http://hospital.smarthealthit.org",
                        "value": "7777705"
                    }
                ],
                "name": [
                    {
                        "use": "official",
                        "family": [
                            "Montgomery"
                        ],
                        "given": [
                            "Angela"
                        ]
                    }
                ],
                "gender": "female",
                "birthDate": "2012-08-24",
                "active": true
            },
            "request": {
                "method": "PUT",
                "url": "Patient/smart-7777705"
            }
        },
        {
            "resource": {
                "resourceType": "Encounter",
                "id": "smart-Encounter-1025",
                "text": {
                    "div": "<div>2012-08-24: ambulatory encounter</div>",
                    "status": "generated"
                },
                "status": "finished",
                "class": "ambulatory",
                "patient": {
                    "reference": "Patient/smart-7777705"
                },
                "period": {
                    "start": "2012-08-24",
                    "end": "2012-08-24"
                }
            },
            "request": {
                "method": "PUT",
                "url": "Encounter/smart-Encounter-1025"
            }
        },
        {
            "resource": {
                "resourceType": "Encounter",
                "id": "smart-Encounter-1026",
                "text": {
                    "div": "<div>2012-12-02: ambulatory encounter</div>",
                    "status": "generated"
                },
                "status": "finished",
                "class": "ambulatory",
                "patient": {
                    "reference": "Patient/smart-7777705"
                },
                "period": {
                    "start": "2012-12-02",
                    "end": "2012-12-02"
                }
            },
            "request": {
                "method": "PUT",
                "url": "Encounter/smart-Encounter-1026"
            }
        },
        {
            "resource": {
                "resourceType": "Encounter",
                "id": "smart-Encounter-1027",
                "text": {
                    "div": "<div>2012-12-08: ambulatory encounter</div>",
                    "status": "generated"
                },
                "status": "finished",
                "class": "ambulatory",
                "patient": {
                    "reference": "Patient/smart-7777705"
                },
                "period": {
                    "start": "2012-12-08",
                    "end": "2012-12-08"
                }
            },
            "request": {
                "method": "PUT",
                "url": "Encounter/smart-Encounter-1027"
            }
        },
        {
            "resource": {
                "resourceType": "Encounter",
                "id": "smart-Encounter-1028",
                "text": {
                    "div": "<div>2012-12-15: ambulatory encounter</div>",
                    "status": "generated"
                },
                "status": "finished",
                "class": "ambulatory",
                "patient": {
                    "reference": "Patient/smart-7777705"
                },
                "period": {
                    "start": "2012-12-15",
                    "end": "2012-12-15"
                }
            },
            "request": {
                "method": "PUT",
                "url": "Encounter/smart-Encounter-1028"
            }
        },
        {
            "resource": {
                "resourceType": "Encounter",
                "id": "smart-Encounter-1029",
                "text": {
                    "div": "<div>2012-12-30: ambulatory encounter</div>",
                    "status": "generated"
                },
                "status": "finished",
                "class": "ambulatory",
                "patient": {
                    "reference": "Patient/smart-7777705"
                },
                "period": {
                    "start": "2012-12-30",
                    "end": "2012-12-30"
                }
            },
            "request": {
                "method": "PUT",
                "url": "Encounter/smart-Encounter-1029"
            }
        },
        {
            "resource": {
                "resourceType": "Encounter",
                "id": "smart-Encounter-1030",
                "text": {
                    "div": "<div>2013-01-08: ambulatory encounter</div>",
                    "status": "generated"
                },
                "status": "finished",
                "class": "ambulatory",
                "patient": {
                    "reference": "Patient/smart-7777705"
                },
                "period": {
                    "start": "2013-01-08",
                    "end": "2013-01-08"
                }
            },
            "request": {
                "method": "PUT",
                "url": "Encounter/smart-Encounter-1030"
            }
        },
        {
            "resource": {
                "resourceType": "Encounter",
                "id": "smart-Encounter-1031",
                "text": {
                    "div": "<div>2013-01-14: ambulatory encounter</div>",
                    "status": "generated"
                },
                "status": "finished",
                "class": "ambulatory",
                "patient": {
                    "reference": "Patient/smart-7777705"
                },
                "period": {
                    "start": "2013-01-14",
                    "end": "2013-01-14"
                }
            },
            "request": {
                "method": "PUT",
                "url": "Encounter/smart-Encounter-1031"
            }
        },
        {
            "resource": {
                "resourceType": "Encounter",
                "id": "smart-Encounter-1032",
                "text": {
                    "div": "<div>2013-01-23: ambulatory encounter</div>",
                    "status": "generated"
                },
                "status": "finished",
                "class": "ambulatory",
                "patient": {
                    "reference": "Patient/smart-7777705"
                },
                "period": {
                    "start": "2013-01-23",
                    "end": "2013-01-23"
                }
            },
            "request": {
                "method": "PUT",
                "url": "Encounter/smart-Encounter-1032"
            }
        },
        {
            "resource": {
                "resourceType": "Encounter",
                "id": "smart-Encounter-1033",
                "text": {
                    "div": "<div>2013-01-29: ambulatory encounter</div>",
                    "status": "generated"
                },
                "status": "finished",
                "class": "ambulatory",
                "patient": {
                    "reference": "Patient/smart-7777705"
                },
                "period": {
                    "start": "2013-01-29",
                    "end": "2013-01-29"
                }
            },
            "request": {
                "method": "PUT",
                "url": "Encounter/smart-Encounter-1033"
            }
        },
        {
            "resource": {
                "resourceType": "Encounter",
                "id": "smart-Encounter-1034",
                "text": {
                    "div": "<div>2013-02-19: ambulatory encounter</div>",
                    "status": "generated"
                },
                "status": "finished",
                "class": "ambulatory",
                "patient": {
                    "reference": "Patient/smart-7777705"
                },
                "period": {
                    "start": "2013-02-19",
                    "end": "2013-02-19"
                }
            },
            "request": {
                "method": "PUT",
                "url": "Encounter/smart-Encounter-1034"
            }
        },
        {
            "resource": {
                "resourceType": "Encounter",
                "id": "smart-Encounter-1035",
                "text": {
                    "div": "<div>2013-02-21: ambulatory encounter</div>",
                    "status": "generated"
                },
                "status": "finished",
                "class": "ambulatory",
                "patient": {
                    "reference": "Patient/smart-7777705"
                },
                "period": {
                    "start": "2013-02-21",
                    "end": "2013-02-21"
                }
            },
            "request": {
                "method": "PUT",
                "url": "Encounter/smart-Encounter-1035"
            }
        },
        {
            "resource": {
                "resourceType": "Observation",
                "id": "smart-Observation-1025-weight",
                "text": {
                    "div": "<div>2012-08-24: weight = 0.753 kg</div>",
                    "status": "generated"
                },
                "category": {
                    "coding": [
                        {
                            "system": "http://hl7.org/fhir/observation-category",
                            "code": "vital-signs",
                            "display": "Vital Signs"
                        }
                    ],
                    "text": "Vital Signs"
                },
                "code": {
                    "coding": [
                        {
                            "system": "http://loinc.org",
                            "code": "3141-9",
                            "display": "weight"
                        }
                    ],
                    "text": "weight"
                },
                "valueQuantity": {
                    "value": 0.753,
                    "system": "http://unitsofmeasure.org",
                    "code": "kg"
                },
                "status": "final",
                "subject": {
                    "reference": "Patient/smart-7777705"
                },
                "encounter": {
                    "reference": "Encounter/smart-Encounter-1025"
                }
            },
            "request": {
                "method": "PUT",
                "url": "Observation/smart-Observation-1025-weight"
            }
        },
        {
            "resource": {
                "resourceType": "Observation",
                "id": "smart-Observation-1026-height",
                "text": {
                    "div": "<div>2012-12-02: height = 45.0 cm</div>",
                    "status": "generated"
                },
                "category": {
                    "coding": [
                        {
                            "system": "http://hl7.org/fhir/observation-category",
                            "code": "vital-signs",
                            "display": "Vital Signs"
                        }
                    ],
                    "text": "Vital Signs"
                },
                "code": {
                    "coding": [
                        {
                            "system": "http://loinc.org",
                            "code": "8302-2",
                            "display": "height"
                        }
                    ],
                    "text": "height"
                },
                "valueQuantity": {
                    "value": 45,
                    "system": "http://unitsofmeasure.org",
                    "code": "cm"
                },
                "status": "final",
                "subject": {
                    "reference": "Patient/smart-7777705"
                },
                "encounter": {
                    "reference": "Encounter/smart-Encounter-1026"
                }
            },
            "request": {
                "method": "PUT",
                "url": "Observation/smart-Observation-1026-height"
            }
        },
        {
            "resource": {
                "resourceType": "Observation",
                "id": "smart-Observation-1026-weight",
                "text": {
                    "div": "<div>2012-12-02: weight = 2.194 kg</div>",
                    "status": "generated"
                },
                "category": {
                    "coding": [
                        {
                            "system": "http://hl7.org/fhir/observation-category",
                            "code": "vital-signs",
                            "display": "Vital Signs"
                        }
                    ],
                    "text": "Vital Signs"
                },
                "code": {
                    "coding": [
                        {
                            "system": "http://loinc.org",
                            "code": "3141-9",
                            "display": "weight"
                        }
                    ],
                    "text": "weight"
                },
                "valueQuantity": {
                    "value": 2.194,
                    "system": "http://unitsofmeasure.org",
                    "code": "kg"
                },
                "status": "final",
                "subject": {
                    "reference": "Patient/smart-7777705"
                },
                "encounter": {
                    "reference": "Encounter/smart-Encounter-1026"
                }
            },
            "request": {
                "method": "PUT",
                "url": "Observation/smart-Observation-1026-weight"
            }
        },
        {
            "resource": {
                "resourceType": "Observation",
                "id": "smart-Observation-1027-height",
                "text": {
                    "div": "<div>2012-12-08: height = 45.0 cm</div>",
                    "status": "generated"
                },
                "category": {
                    "coding": [
                        {
                            "system": "http://hl7.org/fhir/observation-category",
                            "code": "vital-signs",
                            "display": "Vital Signs"
                        }
                    ],
                    "text": "Vital Signs"
                },
                "code": {
                    "coding": [
                        {
                            "system": "http://loinc.org",
                            "code": "8302-2",
                            "display": "height"
                        }
                    ],
                    "text": "height"
                },
                "valueQuantity": {
                    "value": 45,
                    "system": "http://unitsofmeasure.org",
                    "code": "cm"
                },
                "status": "final",
                "subject": {
                    "reference": "Patient/smart-7777705"
                },
                "encounter": {
                    "reference": "Encounter/smart-Encounter-1027"
                }
            },
            "request": {
                "method": "PUT",
                "url": "Observation/smart-Observation-1027-height"
            }
        },
        {
            "resource": {
                "resourceType": "Observation",
                "id": "smart-Observation-1027-weight",
                "text": {
                    "div": "<div>2012-12-08: weight = 2.244 kg</div>",
                    "status": "generated"
                },
                "category": {
                    "coding": [
                        {
                            "system": "http://hl7.org/fhir/observation-category",
                            "code": "vital-signs",
                            "display": "Vital Signs"
                        }
                    ],
                    "text": "Vital Signs"
                },
                "code": {
                    "coding": [
                        {
                            "system": "http://loinc.org",
                            "code": "3141-9",
                            "display": "weight"
                        }
                    ],
                    "text": "weight"
                },
                "valueQuantity": {
                    "value": 2.244,
                    "system": "http://unitsofmeasure.org",
                    "code": "kg"
                },
                "status": "final",
                "subject": {
                    "reference": "Patient/smart-7777705"
                },
                "encounter": {
                    "reference": "Encounter/smart-Encounter-1027"
                }
            },
            "request": {
                "method": "PUT",
                "url": "Observation/smart-Observation-1027-weight"
            }
        },
        {
            "resource": {
                "resourceType": "Observation",
                "id": "smart-Observation-1028-height",
                "text": {
                    "div": "<div>2012-12-15: height = 45.0 cm</div>",
                    "status": "generated"
                },
                "category": {
                    "coding": [
                        {
                            "system": "http://hl7.org/fhir/observation-category",
                            "code": "vital-signs",
                            "display": "Vital Signs"
                        }
                    ],
                    "text": "Vital Signs"
                },
                "code": {
                    "coding": [
                        {
                            "system": "http://loinc.org",
                            "code": "8302-2",
                            "display": "height"
                        }
                    ],
                    "text": "height"
                },
                "valueQuantity": {
                    "value": 45,
                    "system": "http://unitsofmeasure.org",
                    "code": "cm"
                },
                "status": "final",
                "subject": {
                    "reference": "Patient/smart-7777705"
                },
                "encounter": {
                    "reference": "Encounter/smart-Encounter-1028"
                }
            },
            "request": {
                "method": "PUT",
                "url": "Observation/smart-Observation-1028-height"
            }
        },
        {
            "resource": {
                "resourceType": "Observation",
                "id": "smart-Observation-1028-weight",
                "text": {
                    "div": "<div>2012-12-15: weight = 2.371 kg</div>",
                    "status": "generated"
                },
                "category": {
                    "coding": [
                        {
                            "system": "http://hl7.org/fhir/observation-category",
                            "code": "vital-signs",
                            "display": "Vital Signs"
                        }
                    ],
                    "text": "Vital Signs"
                },
                "code": {
                    "coding": [
                        {
                            "system": "http://loinc.org",
                            "code": "3141-9",
                            "display": "weight"
                        }
                    ],
                    "text": "weight"
                },
                "valueQuantity": {
                    "value": 2.371,
                    "system": "http://unitsofmeasure.org",
                    "code": "kg"
                },
                "status": "final",
                "subject": {
                    "reference": "Patient/smart-7777705"
                },
                "encounter": {
                    "reference": "Encounter/smart-Encounter-1028"
                }
            },
            "request": {
                "method": "PUT",
                "url": "Observation/smart-Observation-1028-weight"
            }
        },
        {
            "resource": {
                "resourceType": "Observation",
                "id": "smart-Observation-1029-height",
                "text": {
                    "div": "<div>2012-12-30: height = 45.9 cm</div>",
                    "status": "generated"
                },
                "category": {
                    "coding": [
                        {
                            "system": "http://hl7.org/fhir/observation-category",
                            "code": "vital-signs",
                            "display": "Vital Signs"
                        }
                    ],
                    "text": "Vital Signs"
                },
                "code": {
                    "coding": [
                        {
                            "system": "http://loinc.org",
                            "code": "8302-2",
                            "display": "height"
                        }
                    ],
                    "text": "height"
                },
                "valueQuantity": {
                    "value": 45.9,
                    "system": "http://unitsofmeasure.org",
                    "code": "cm"
                },
                "status": "final",
                "subject": {
                    "reference": "Patient/smart-7777705"
                },
                "encounter": {
                    "reference": "Encounter/smart-Encounter-1029"
                }
            },
            "request": {
                "method": "PUT",
                "url": "Observation/smart-Observation-1029-height"
            }
        },
        {
            "resource": {
                "resourceType": "Observation",
                "id": "smart-Observation-1029-weight",
                "text": {
                    "div": "<div>2012-12-30: weight = 2.648 kg</div>",
                    "status": "generated"
                },
                "category": {
                    "coding": [
                        {
                            "system": "http://hl7.org/fhir/observation-category",
                            "code": "vital-signs",
                            "display": "Vital Signs"
                        }
                    ],
                    "text": "Vital Signs"
                },
                "code": {
                    "coding": [
                        {
                            "system": "http://loinc.org",
                            "code": "3141-9",
                            "display": "weight"
                        }
                    ],
                    "text": "weight"
                },
                "valueQuantity": {
                    "value": 2.648,
                    "system": "http://unitsofmeasure.org",
                    "code": "kg"
                },
                "status": "final",
                "subject": {
                    "reference": "Patient/smart-7777705"
                },
                "encounter": {
                    "reference": "Encounter/smart-Encounter-1029"
                }
            },
            "request": {
                "method": "PUT",
                "url": "Observation/smart-Observation-1029-weight"
            }
        },
        {
            "resource": {
                "resourceType": "Observation",
                "id": "smart-Observation-1030-height",
                "text": {
                    "div": "<div>2013-01-08: height = 46.7 cm</div>",
                    "status": "generated"
                },
                "category": {
                    "coding": [
                        {
                            "system": "http://hl7.org/fhir/observation-category",
                            "code": "vital-signs",
                            "display": "Vital Signs"
                        }
                    ],
                    "text": "Vital Signs"
                },
                "code": {
                    "coding": [
                        {
                            "system": "http://loinc.org",
                            "code": "8302-2",
                            "display": "height"
                        }
                    ],
                    "text": "height"
                },
                "valueQuantity": {
                    "value": 46.7,
                    "system": "http://unitsofmeasure.org",
                    "code": "cm"
                },
                "status": "final",
                "subject": {
                    "reference": "Patient/smart-7777705"
                },
                "encounter": {
                    "reference": "Encounter/smart-Encounter-1030"
                }
            },
            "request": {
                "method": "PUT",
                "url": "Observation/smart-Observation-1030-height"
            }
        },
        {
            "resource": {
                "resourceType": "Observation",
                "id": "smart-Observation-1030-weight",
                "text": {
                    "div": "<div>2013-01-08: weight = 2.775 kg</div>",
                    "status": "generated"
                },
                "category": {
                    "coding": [
                        {
                            "system": "http://hl7.org/fhir/observation-category",
                            "code": "vital-signs",
                            "display": "Vital Signs"
                        }
                    ],
                    "text": "Vital Signs"
                },
                "code": {
                    "coding": [
                        {
                            "system": "http://loinc.org",
                            "code": "3141-9",
                            "display": "weight"
                        }
                    ],
                    "text": "weight"
                },
                "valueQuantity": {
                    "value": 2.775,
                    "system": "http://unitsofmeasure.org",
                    "code": "kg"
                },
                "status": "final",
                "subject": {
                    "reference": "Patient/smart-7777705"
                },
                "encounter": {
                    "reference": "Encounter/smart-Encounter-1030"
                }
            },
            "request": {
                "method": "PUT",
                "url": "Observation/smart-Observation-1030-weight"
            }
        },
        {
            "resource": {
                "resourceType": "Observation",
                "id": "smart-Observation-1031-height",
                "text": {
                    "div": "<div>2013-01-14: height = 46.8 cm</div>",
                    "status": "generated"
                },
                "category": {
                    "coding": [
                        {
                            "system": "http://hl7.org/fhir/observation-category",
                            "code": "vital-signs",
                            "display": "Vital Signs"
                        }
                    ],
                    "text": "Vital Signs"
                },
                "code": {
                    "coding": [
                        {
                            "system": "http://loinc.org",
                            "code": "8302-2",
                            "display": "height"
                        }
                    ],
                    "text": "height"
                },
                "valueQuantity": {
                    "value": 46.8,
                    "system": "http://unitsofmeasure.org",
                    "code": "cm"
                },
                "status": "final",
                "subject": {
                    "reference": "Patient/smart-7777705"
                },
                "encounter": {
                    "reference": "Encounter/smart-Encounter-1031"
                }
            },
            "request": {
                "method": "PUT",
                "url": "Observation/smart-Observation-1031-height"
            }
        },
        {
            "resource": {
                "resourceType": "Observation",
                "id": "smart-Observation-1031-weight",
                "text": {
                    "div": "<div>2013-01-14: weight = 2.926 kg</div>",
                    "status": "generated"
                },
                "category": {
                    "coding": [
                        {
                            "system": "http://hl7.org/fhir/observation-category",
                            "code": "vital-signs",
                            "display": "Vital Signs"
                        }
                    ],
                    "text": "Vital Signs"
                },
                "code": {
                    "coding": [
                        {
                            "system": "http://loinc.org",
                            "code": "3141-9",
                            "display": "weight"
                        }
                    ],
                    "text": "weight"
                },
                "valueQuantity": {
                    "value": 2.926,
                    "system": "http://unitsofmeasure.org",
                    "code": "kg"
                },
                "status": "final",
                "subject": {
                    "reference": "Patient/smart-7777705"
                },
                "encounter": {
                    "reference": "Encounter/smart-Encounter-1031"
                }
            },
            "request": {
                "method": "PUT",
                "url": "Observation/smart-Observation-1031-weight"
            }
        },
        {
            "resource": {
                "resourceType": "Observation",
                "id": "smart-Observation-1032-weight",
                "text": {
                    "div": "<div>2013-01-23: weight = 3.1 kg</div>",
                    "status": "generated"
                },
                "category": {
                    "coding": [
                        {
                            "system": "http://hl7.org/fhir/observation-category",
                            "code": "vital-signs",
                            "display": "Vital Signs"
                        }
                    ],
                    "text": "Vital Signs"
                },
                "code": {
                    "coding": [
                        {
                            "system": "http://loinc.org",
                            "code": "3141-9",
                            "display": "weight"
                        }
                    ],
                    "text": "weight"
                },
                "valueQuantity": {
                    "value": 3.1,
                    "system": "http://unitsofmeasure.org",
                    "code": "kg"
                },
                "status": "final",
                "subject": {
                    "reference": "Patient/smart-7777705"
                },
                "encounter": {
                    "reference": "Encounter/smart-Encounter-1032"
                }
            },
            "request": {
                "method": "PUT",
                "url": "Observation/smart-Observation-1032-weight"
            }
        },
        {
            "resource": {
                "resourceType": "Observation",
                "id": "smart-Observation-1033-height",
                "text": {
                    "div": "<div>2013-01-29: height = 49.5 cm</div>",
                    "status": "generated"
                },
                "category": {
                    "coding": [
                        {
                            "system": "http://hl7.org/fhir/observation-category",
                            "code": "vital-signs",
                            "display": "Vital Signs"
                        }
                    ],
                    "text": "Vital Signs"
                },
                "code": {
                    "coding": [
                        {
                            "system": "http://loinc.org",
                            "code": "8302-2",
                            "display": "height"
                        }
                    ],
                    "text": "height"
                },
                "valueQuantity": {
                    "value": 49.5,
                    "system": "http://unitsofmeasure.org",
                    "code": "cm"
                },
                "status": "final",
                "subject": {
                    "reference": "Patient/smart-7777705"
                },
                "encounter": {
                    "reference": "Encounter/smart-Encounter-1033"
                }
            },
            "request": {
                "method": "PUT",
                "url": "Observation/smart-Observation-1033-height"
            }
        },
        {
            "resource": {
                "resourceType": "Observation",
                "id": "smart-Observation-1033-weight",
                "text": {
                    "div": "<div>2013-01-29: weight = 3.2 kg</div>",
                    "status": "generated"
                },
                "category": {
                    "coding": [
                        {
                            "system": "http://hl7.org/fhir/observation-category",
                            "code": "vital-signs",
                            "display": "Vital Signs"
                        }
                    ],
                    "text": "Vital Signs"
                },
                "code": {
                    "coding": [
                        {
                            "system": "http://loinc.org",
                            "code": "3141-9",
                            "display": "weight"
                        }
                    ],
                    "text": "weight"
                },
                "valueQuantity": {
                    "value": 3.2,
                    "system": "http://unitsofmeasure.org",
                    "code": "kg"
                },
                "status": "final",
                "subject": {
                    "reference": "Patient/smart-7777705"
                },
                "encounter": {
                    "reference": "Encounter/smart-Encounter-1033"
                }
            },
            "request": {
                "method": "PUT",
                "url": "Observation/smart-Observation-1033-weight"
            }
        },
        {
            "resource": {
                "resourceType": "Observation",
                "id": "smart-Observation-1034-height",
                "text": {
                    "div": "<div>2013-02-19: height = 50.1 cm</div>",
                    "status": "generated"
                },
                "category": {
                    "coding": [
                        {
                            "system": "http://hl7.org/fhir/observation-category",
                            "code": "vital-signs",
                            "display": "Vital Signs"
                        }
                    ],
                    "text": "Vital Signs"
                },
                "code": {
                    "coding": [
                        {
                            "system": "http://loinc.org",
                            "code": "8302-2",
                            "display": "height"
                        }
                    ],
                    "text": "height"
                },
                "valueQuantity": {
                    "value": 50.1,
                    "system": "http://unitsofmeasure.org",
                    "code": "cm"
                },
                "status": "final",
                "subject": {
                    "reference": "Patient/smart-7777705"
                },
                "encounter": {
                    "reference": "Encounter/smart-Encounter-1034"
                }
            },
            "request": {
                "method": "PUT",
                "url": "Observation/smart-Observation-1034-height"
            }
        },
        {
            "resource": {
                "resourceType": "Observation",
                "id": "smart-Observation-1034-weight",
                "text": {
                    "div": "<div>2013-02-19: weight = 3.7 kg</div>",
                    "status": "generated"
                },
                "category": {
                    "coding": [
                        {
                            "system": "http://hl7.org/fhir/observation-category",
                            "code": "vital-signs",
                            "display": "Vital Signs"
                        }
                    ],
                    "text": "Vital Signs"
                },
                "code": {
                    "coding": [
                        {
                            "system": "http://loinc.org",
                            "code": "3141-9",
                            "display": "weight"
                        }
                    ],
                    "text": "weight"
                },
                "valueQuantity": {
                    "value": 3.7,
                    "system": "http://unitsofmeasure.org",
                    "code": "kg"
                },
                "status": "final",
                "subject": {
                    "reference": "Patient/smart-7777705"
                },
                "encounter": {
                    "reference": "Encounter/smart-Encounter-1034"
                }
            },
            "request": {
                "method": "PUT",
                "url": "Observation/smart-Observation-1034-weight"
            }
        },
        {
            "resource": {
                "resourceType": "FamilyMemberHistory",
                "id": "smart-FamilyMemberHistory-15",
                "extension": [
                    {
                        "url": "http://fhir-registry.smarthealthit.org/StructureDefinition/family-history#height",
                        "valueQuantity": {
                            "value": 177,
                            "system": "http://unitsofmeasure.org",
                            "code": "cm"
                        }
                    }
                ],
                "text": {
                    "div": "<div>Data on patient's Father</div>",
                    "status": "generated"
                },
                "patient": {
                    "reference": "Patient/smart-7777705"
                },
                "relationship": {
                    "coding": [
                        {
                            "system": "http://hl7.org/fhir/v3/RoleCode",
                            "code": "FTH",
                            "display": "father"
                        }
                    ]
                }
            },
            "request": {
                "method": "PUT",
                "url": "FamilyMemberHistory/smart-FamilyMemberHistory-15"
            }
        },
        {
            "resource": {
                "resourceType": "FamilyMemberHistory",
                "id": "smart-FamilyMemberHistory-16",
                "extension": [
                    {
                        "url": "http://fhir-registry.smarthealthit.org/StructureDefinition/family-history#height",
                        "valueQuantity": {
                            "value": 164,
                            "system": "http://unitsofmeasure.org",
                            "code": "cm"
                        }
                    }
                ],
                "text": {
                    "div": "<div>Data on patient's Mother</div>",
                    "status": "generated"
                },
                "patient": {
                    "reference": "Patient/smart-7777705"
                },
                "relationship": {
                    "coding": [
                        {
                            "system": "http://hl7.org/fhir/v3/RoleCode",
                            "code": "MTH",
                            "display": "mother"
                        }
                    ]
                }
            },
            "request": {
                "method": "PUT",
                "url": "FamilyMemberHistory/smart-FamilyMemberHistory-16"
            }
        },
        {
            "resource": {
                "resourceType": "Observation",
                "id": "smart-Observation-7777705-gestage",
                "text": {
                    "div": "<div>2012-08-24: Gestational age at birth = 25.2 weeks</div>",
                    "status": "generated"
                },
                "category": {
                    "coding": [
                        {
                            "system": "http://hl7.org/fhir/observation-category",
                            "code": "exam",
                            "display": "Exam"
                        }
                    ],
                    "text": "Exam"
                },
                "code": {
                    "coding": [
                        {
                            "system": "http://loinc.org",
                            "code": "18185-9",
                            "display": "Gestational age at birth"
                        }
                    ],
                    "text": "Gestational age at birth"
                },
                "valueQuantity": {
                    "value": 25.2,
                    "system": "http://unitsofmeasure.org",
                    "code": "wk"
                },
                "status": "final",
                "subject": {
                    "reference": "Patient/smart-7777705"
                }
            },
            "request": {
                "method": "PUT",
                "url": "Observation/smart-Observation-7777705-gestage"
            }
        }
    ]
}