{
    "resourceType": "Bundle",
    "type": "transaction",
    "entry": [
        {
            "resource": {
                "resourceType": "Patient",
                "id": "smart-7777704",
                "text": {
                    "div": "<div><p>Kimberly Revis</p></div>",
                    "status": "generated"
                },
                "identifier": [
                    {
                        "use": "usual",
                        "system": "http://hospital.smarthealthit.org",
                        "value": "7777704"
                    }
                ],
                "name": [
                    {
                        "use": "official",
                        "family": [
                            "Revis"
                        ],
                        "given": [
                            "Kimberly"
                        ]
                    }
                ],
                "gender": "female",
                "birthDate": "2003-08-16",
                "active": true
            },
            "request": {
                "method": "PUT",
                "url": "Patient/smart-7777704"
            }
        },
        {
            "resource": {
                "resourceType": "Encounter",
                "id": "smart-Encounter-1009",
                "text": {
                    "div": "<div>2005-09-21: ambulatory encounter</div>",
                    "status": "generated"
                },
                "status": "finished",
                "class": "ambulatory",
                "patient": {
                    "reference": "Patient/smart-7777704"
                },
                "period": {
                    "start": "2005-09-21",
                    "end": "2005-09-21"
                }
            },
            "request": {
                "method": "PUT",
                "url": "Encounter/smart-Encounter-1009"
            }
        },
        {
            "resource": {
                "resourceType": "Encounter",
                "id": "smart-Encounter-1010",
                "text": {
                    "div": "<div>2005-10-27: ambulatory encounter</div>",
                    "status": "generated"
                },
                "status": "finished",
                "class": "ambulatory",
                "patient": {
                    "reference": "Patient/smart-7777704"
                },
                "period": {
                    "start": "2005-10-27",
                    "end": "2005-10-27"
                }
            },
            "request": {
                "method": "PUT",
                "url": "Encounter/smart-Encounter-1010"
            }
        },
        {
            "resource": {
                "resourceType": "Encounter",
                "id": "smart-Encounter-1011",
                "text": {
                    "div": "<div>2006-02-14: ambulatory encounter</div>",
                    "status": "generated"
                },
                "status": "finished",
                "class": "ambulatory",
                "patient": {
                    "reference": "Patient/smart-7777704"
                },
                "period": {
                    "start": "2006-02-14",
                    "end": "2006-02-14"
                }
            },
            "request": {
                "method": "PUT",
                "url": "Encounter/smart-Encounter-1011"
            }
        },
        {
            "resource": {
                "resourceType": "Encounter",
                "id": "smart-Encounter-1012",
                "text": {
                    "div": "<div>2006-09-21: ambulatory encounter</div>",
                    "status": "generated"
                },
                "status": "finished",
                "class": "ambulatory",
                "patient": {
                    "reference": "Patient/smart-7777704"
                },
                "period": {
                    "start": "2006-09-21",
                    "end": "2006-09-21"
                }
            },
            "request": {
                "method": "PUT",
                "url": "Encounter/smart-Encounter-1012"
            }
        },
        {
            "resource": {
                "resourceType": "Encounter",
                "id": "smart-Encounter-1013",
                "text": {
                    "div": "<div>2006-10-27: ambulatory encounter</div>",
                    "status": "generated"
                },
                "status": "finished",
                "class": "ambulatory",
                "patient": {
                    "reference": "Patient/smart-7777704"
                },
                "period": {
                    "start": "2006-10-27",
                    "end": "2006-10-27"
                }
            },
            "request": {
                "method": "PUT",
                "url": "Encounter/smart-Encounter-1013"
            }
        },
        {
            "resource": {
                "resourceType": "Encounter",
                "id": "smart-Encounter-1014",
                "text": {
                    "div": "<div>2007-06-03: ambulatory encounter</div>",
                    "status": "generated"
                },
                "status": "finished",
                "class": "ambulatory",
                "patient": {
                    "reference": "Patient/smart-7777704"
                },
                "period": {
                    "start": "2007-06-03",
                    "end": "2007-06-03"
                }
            },
            "request": {
                "method": "PUT",
                "url": "Encounter/smart-Encounter-1014"
            }
        },
        {
            "resource": {
                "resourceType": "Encounter",
                "id": "smart-Encounter-1015",
                "text": {
                    "div": "<div>2007-08-15: ambulatory encounter</div>",
                    "status": "generated"
                },
                "status": "finished",
                "class": "ambulatory",
                "patient": {
                    "reference": "Patient/smart-7777704"
                },
                "period": {
                    "start": "2007-08-15",
                    "end": "2007-08-15"
                }
            },
            "request": {
                "method": "PUT",
                "url": "Encounter/smart-Encounter-1015"
            }
        },
        {
            "resource": {
                "resourceType": "Encounter",
                "id": "smart-Encounter-1016",
                "text": {
                    "div": "<div>2007-10-27: ambulatory encounter</div>",
                    "status": "generated"
                },
                "status": "finished",
                "class": "ambulatory",
                "patient": {
                    "reference": "Patient/smart-7777704"
                },
                "period": {
                    "start": "2007-10-27",
                    "end": "2007-10-27"
                }
            },
            "request": {
                "method": "PUT",
                "url": "Encounter/smart-Encounter-1016"
            }
        },
        {
            "resource": {
                "resourceType": "Encounter",
                "id": "smart-Encounter-1017",
                "text": {
                    "div": "<div>2008-02-14: ambulatory encounter</div>",
                    "status": "generated"
                },
                "status": "finished",
                "class": "ambulatory",
                "patient": {
                    "reference": "Patient/smart-7777704"
                },
                "period": {
                    "start": "2008-02-14",
                    "end": "2008-02-14"
                }
            },
            "request": {
                "method": "PUT",
                "url": "Encounter/smart-Encounter-1017"
            }
        },
        {
            "resource": {
                "resourceType": "Encounter",
                "id": "smart-Encounter-1018",
                "text": {
                    "div": "<div>2010-03-21: ambulatory encounter</div>",
                    "status": "generated"
                },
                "status": "finished",
                "class": "ambulatory",
                "patient": {
                    "reference": "Patient/smart-7777704"
                },
                "period": {
                    "start": "2010-03-21",
                    "end": "2010-03-21"
                }
            },
            "request": {
                "method": "PUT",
                "url": "Encounter/smart-Encounter-1018"
            }
        },
        {
            "resource": {
                "resourceType": "Encounter",
                "id": "smart-Encounter-1019",
                "text": {
                    "div": "<div>2011-01-07: ambulatory encounter</div>",
                    "status": "generated"
                },
                "status": "finished",
                "class": "ambulatory",
                "patient": {
                    "reference": "Patient/smart-7777704"
                },
                "period": {
                    "start": "2011-01-07",
                    "end": "2011-01-07"
                }
            },
            "request": {
                "method": "PUT",
                "url": "Encounter/smart-Encounter-1019"
            }
        },
        {
            "resource": {
                "resourceType": "Encounter",
                "id": "smart-Encounter-1020",
                "text": {
                    "div": "<div>2011-09-20: ambulatory encounter</div>",
                    "status": "generated"
                },
                "status": "finished",
                "class": "ambulatory",
                "patient": {
                    "reference": "Patient/smart-7777704"
                },
                "period": {
                    "start": "2011-09-20",
                    "end": "2011-09-20"
                }
            },
            "request": {
                "method": "PUT",
                "url": "Encounter/smart-Encounter-1020"
            }
        },
        {
            "resource": {
                "resourceType": "Encounter",
                "id": "smart-Encounter-1021",
                "text": {
                    "div": "<div>2011-12-02: ambulatory encounter</div>",
                    "status": "generated"
                },
                "status": "finished",
                "class": "ambulatory",
                "patient": {
                    "reference": "Patient/smart-7777704"
                },
                "period": {
                    "start": "2011-12-02",
                    "end": "2011-12-02"
                }
            },
            "request": {
                "method": "PUT",
                "url": "Encounter/smart-Encounter-1021"
            }
        },
        {
            "resource": {
                "resourceType": "Encounter",
                "id": "smart-Encounter-1022",
                "text": {
                    "div": "<div>2012-02-13: ambulatory encounter</div>",
                    "status": "generated"
                },
                "status": "finished",
                "class": "ambulatory",
                "patient": {
                    "reference": "Patient/smart-7777704"
                },
                "period": {
                    "start": "2012-02-13",
                    "end": "2012-02-13"
                }
            },
            "request": {
                "method": "PUT",
                "url": "Encounter/smart-Encounter-1022"
            }
        },
        {
            "resource": {
                "resourceType": "Encounter",
                "id": "smart-Encounter-1023",
                "text": {
                    "div": "<div>2012-07-08: ambulatory encounter</div>",
                    "status": "generated"
                },
                "status": "finished",
                "class": "ambulatory",
                "patient": {
                    "reference": "Patient/smart-7777704"
                },
                "period": {
                    "start": "2012-07-08",
                    "end": "2012-07-08"
                }
            },
            "request": {
                "method": "PUT",
                "url": "Encounter/smart-Encounter-1023"
            }
        },
        {
            "resource": {
                "resourceType": "Encounter",
                "id": "smart-Encounter-1024",
                "text": {
                    "div": "<div>2012-12-01: ambulatory encounter</div>",
                    "status": "generated"
                },
                "status": "finished",
                "class": "ambulatory",
                "patient": {
                    "reference": "Patient/smart-7777704"
                },
                "period": {
                    "start": "2012-12-01",
                    "end": "2012-12-01"
                }
            },
            "request": {
                "method": "PUT",
                "url": "Encounter/smart-Encounter-1024"
            }
        },
        {
            "resource": {
                "resourceType": "Observation",
                "id": "smart-Observation-1009-height",
                "text": {
                    "div": "<div>2005-09-21: height = 85.5 cm</div>",
                    "status": "generated"
                },
                "category": {
                    "coding": [
                        {
                            "system": "http://hl7.org/fhir/observation-category",
                            "code": "vital-signs",
                            "display": "Vital Signs"
                        }
                    ],
                    "text": "Vital Signs"
                },
                "code": {
                    "coding": [
                        {
                            "system": "http://loinc.org",
                            "code": "8302-2",
                            "display": "height"
                        }
                    ],
                    "text": "height"
                },
                "valueQuantity": {
                    "value": 85.5,
                    "system": "http://unitsofmeasure.org",
                    "code": "cm"
                },
                "status": "final",
                "subject": {
                    "reference": "Patient/smart-7777704"
                },
                "encounter": {
                    "reference": "Encounter/smart-Encounter-1009"
                }
            },
            "request": {
                "method": "PUT",
                "url": "Observation/smart-Observation-1009-height"
            }
        },
        {
            "resource": {
                "resourceType": "Observation",
                "id": "smart-Observation-1009-weight",
                "text": {
                    "div": "<div>2005-09-21: weight = 12.4 kg</div>",
                    "status": "generated"
                },
                "category": {
                    "coding": [
                        {
                            "system": "http://hl7.org/fhir/observation-category",
                            "code": "vital-signs",
                            "display": "Vital Signs"
                        }
                    ],
                    "text": "Vital Signs"
                },
                "code": {
                    "coding": [
                        {
                            "system": "http://loinc.org",
                            "code": "3141-9",
                            "display": "weight"
                        }
                    ],
                    "text": "weight"
                },
                "valueQuantity": {
                    "value": 12.4,
                    "system": "http://unitsofmeasure.org",
                    "code": "kg"
                },
                "status": "final",
                "subject": {
                    "reference": "Patient/smart-7777704"
                },
                "encounter": {
                    "reference": "Encounter/smart-Encounter-1009"
                }
            },
            "request": {
                "method": "PUT",
                "url": "Observation/smart-Observation-1009-weight"
            }
        },
        {
            "resource": {
                "resourceType": "Observation",
                "id": "smart-Observation-1009-bmi",
                "text": {
                    "div": "<div>2005-09-21: bmi = 16.9 kg/m2</div>",
                    "status": "generated"
                },
                "category": {
                    "coding": [
                        {
                            "system": "http://hl7.org/fhir/observation-category",
                            "code": "vital-signs",
                            "display": "Vital Signs"
                        }
                    ],
                    "text": "Vital Signs"
                },
                "code": {
                    "coding": [
                        {
                            "system": "http://loinc.org",
                            "code": "39156-5",
                            "display": "bmi"
                        }
                    ],
                    "text": "bmi"
                },
                "valueQuantity": {
                    "value": 16.9,
                    "system": "http://unitsofmeasure.org",
                    "code": "kg/m2"
                },
                "status": "final",
                "subject": {
                    "reference": "Patient/smart-7777704"
                },
                "encounter": {
                    "reference": "Encounter/smart-Encounter-1009"
                }
            },
            "request": {
                "method": "PUT",
                "url": "Observation/smart-Observation-1009-bmi"
            }
        },
        {
            "resource": {
                "resourceType": "Observation",
                "id": "smart-Observation-1010-height",
                "text": {
                    "div": "<div>2005-10-27: height = 88.0 cm</div>",
                    "status": "generated"
                },
                "category": {
                    "coding": [
                        {
                            "system": "http://hl7.org/fhir/observation-category",
                            "code": "vital-signs",
                            "display": "Vital Signs"
                        }
                    ],
                    "text": "Vital Signs"
                },
                "code": {
                    "coding": [
                        {
                            "system": "http://loinc.org",
                            "code": "8302-2",
                            "display": "height"
                        }
                    ],
                    "text": "height"
                },
                "valueQuantity": {
                    "value": 88,
                    "system": "http://unitsofmeasure.org",
                    "code": "cm"
                },
                "status": "final",
                "subject": {
                    "reference": "Patient/smart-7777704"
                },
                "encounter": {
                    "reference": "Encounter/smart-Encounter-1010"
                }
            },
            "request": {
                "method": "PUT",
                "url": "Observation/smart-Observation-1010-height"
            }
        },
        {
            "resource": {
                "resourceType": "Observation",
                "id": "smart-Observation-1010-weight",
                "text": {
                    "div": "<div>2005-10-27: weight = 12.6 kg</div>",
                    "status": "generated"
                },
                "category": {
                    "coding": [
                        {
                            "system": "http://hl7.org/fhir/observation-category",
                            "code": "vital-signs",
                            "display": "Vital Signs"
                        }
                    ],
                    "text": "Vital Signs"
                },
                "code": {
                    "coding": [
                        {
                            "system": "http://loinc.org",
                            "code": "3141-9",
                            "display": "weight"
                        }
                    ],
                    "text": "weight"
                },
                "valueQuantity": {
                    "value": 12.6,
                    "system": "http://unitsofmeasure.org",
                    "code": "kg"
                },
                "status": "final",
                "subject": {
                    "reference": "Patient/smart-7777704"
                },
                "encounter": {
                    "reference": "Encounter/smart-Encounter-1010"
                }
            },
            "request": {
                "method": "PUT",
                "url": "Observation/smart-Observation-1010-weight"
            }
        },
        {
            "resource": {
                "resourceType": "Observation",
                "id": "smart-Observation-1010-bmi",
                "text": {
                    "div": "<div>2005-10-27: bmi = 16.3 kg/m2</div>",
                    "status": "generated"
                },
                "category": {
                    "coding": [
                        {
                            "system": "http://hl7.org/fhir/observation-category",
                            "code": "vital-signs",
                            "display": "Vital Signs"
                        }
                    ],
                    "text": "Vital Signs"
                },
                "code": {
                    "coding": [
                        {
                            "system": "http://loinc.org",
                            "code": "39156-5",
                            "display": "bmi"
                        }
                    ],
                    "text": "bmi"
                },
                "valueQuantity": {
                    "value": 16.3,
                    "system": "http://unitsofmeasure.org",
                    "code": "kg/m2"
                },
                "status": "final",
                "subject": {
                    "reference": "Patient/smart-7777704"
                },
                "encounter": {
                    "reference": "Encounter/smart-Encounter-1010"
                }
            },
            "request": {
                "method": "PUT",
                "url": "Observation/smart-Observation-1010-bmi"
            }
        },
        {
            "resource": {
                "resourceType": "Observation",
                "id": "smart-Observation-1011-height",
                "text": {
                    "div": "<div>2006-02-14: height = 89.5 cm</div>",
                    "status": "generated"
                },
                "category": {
                    "coding": [
                        {
                            "system": "http://hl7.org/fhir/observation-category",
                            "code": "vital-signs",
                            "display": "Vital Signs"
                        }
                    ],
                    "text": "Vital Signs"
                },
                "code": {
                    "coding": [
                        {
                            "system": "http://loinc.org",
                            "code": "8302-2",
                            "display": "height"
                        }
                    ],
                    "text": "height"
                },
                "valueQuantity": {
                    "value": 89.5,
                    "system": "http://unitsofmeasure.org",
                    "code": "cm"
                },
                "status": "final",
                "subject": {
                    "reference": "Patient/smart-7777704"
                },
                "encounter": {
                    "reference": "Encounter/smart-Encounter-1011"
                }
            },
            "request": {
                "method": "PUT",
                "url": "Observation/smart-Observation-1011-height"
            }
        },
        {
            "resource": {
                "resourceType": "Observation",
                "id": "smart-Observation-1011-weight",
                "text": {
                    "div": "<div>2006-02-14: weight = 12.7 kg</div>",
                    "status": "generated"
                },
                "category": {
                    "coding": [
                        {
                            "system": "http://hl7.org/fhir/observation-category",
                            "code": "vital-signs",
                            "display": "Vital Signs"
                        }
                    ],
                    "text": "Vital Signs"
                },
                "code": {
                    "coding": [
                        {
                            "system": "http://loinc.org",
                            "code": "3141-9",
                            "display": "weight"
                        }
                    ],
                    "text": "weight"
                },
                "valueQuantity": {
                    "value": 12.7,
                    "system": "http://unitsofmeasure.org",
                    "code": "kg"
                },
                "status": "final",
                "subject": {
                    "reference": "Patient/smart-7777704"
                },
                "encounter": {
                    "reference": "Encounter/smart-Encounter-1011"
                }
            },
            "request": {
                "method": "PUT",
                "url": "Observation/smart-Observation-1011-weight"
            }
        },
        {
            "resource": {
                "resourceType": "Observation",
                "id": "smart-Observation-1011-bmi",
                "text": {
                    "div": "<div>2006-02-14: bmi = 16.0 kg/m2</div>",
                    "status": "generated"
                },
                "category": {
                    "coding": [
                        {
                            "system": "http://hl7.org/fhir/observation-category",
                            "code": "vital-signs",
                            "display": "Vital Signs"
                        }
                    ],
                    "text": "Vital Signs"
                },
                "code": {
                    "coding": [
                        {
                            "system": "http://loinc.org",
                            "code": "39156-5",
                            "display": "bmi"
                        }
                    ],
                    "text": "bmi"
                },
                "valueQuantity": {
                    "value": 16,
                    "system": "http://unitsofmeasure.org",
                    "code": "kg/m2"
                },
                "status": "final",
                "subject": {
                    "reference": "Patient/smart-7777704"
                },
                "encounter": {
                    "reference": "Encounter/smart-Encounter-1011"
                }
            },
            "request": {
                "method": "PUT",
                "url": "Observation/smart-Observation-1011-bmi"
            }
        },
        {
            "resource": {
                "resourceType": "Observation",
                "id": "smart-Observation-1012-height",
                "text": {
                    "div": "<div>2006-09-21: height = 93.3 cm</div>",
                    "status": "generated"
                },
                "category": {
                    "coding": [
                        {
                            "system": "http://hl7.org/fhir/observation-category",
                            "code": "vital-signs",
                            "display": "Vital Signs"
                        }
                    ],
                    "text": "Vital Signs"
                },
                "code": {
                    "coding": [
                        {
                            "system": "http://loinc.org",
                            "code": "8302-2",
                            "display": "height"
                        }
                    ],
                    "text": "height"
                },
                "valueQuantity": {
                    "value": 93.3,
                    "system": "http://unitsofmeasure.org",
                    "code": "cm"
                },
                "status": "final",
                "subject": {
                    "reference": "Patient/smart-7777704"
                },
                "encounter": {
                    "reference": "Encounter/smart-Encounter-1012"
                }
            },
            "request": {
                "method": "PUT",
                "url": "Observation/smart-Observation-1012-height"
            }
        },
        {
            "resource": {
                "resourceType": "Observation",
                "id": "smart-Observation-1012-weight",
                "text": {
                    "div": "<div>2006-09-21: weight = 14.5 kg</div>",
                    "status": "generated"
                },
                "category": {
                    "coding": [
                        {
                            "system": "http://hl7.org/fhir/observation-category",
                            "code": "vital-signs",
                            "display": "Vital Signs"
                        }
                    ],
                    "text": "Vital Signs"
                },
                "code": {
                    "coding": [
                        {
                            "system": "http://loinc.org",
                            "code": "3141-9",
                            "display": "weight"
                        }
                    ],
                    "text": "weight"
                },
                "valueQuantity": {
                    "value": 14.5,
                    "system": "http://unitsofmeasure.org",
                    "code": "kg"
                },
                "status": "final",
                "subject": {
                    "reference": "Patient/smart-7777704"
                },
                "encounter": {
                    "reference": "Encounter/smart-Encounter-1012"
                }
            },
            "request": {
                "method": "PUT",
                "url": "Observation/smart-Observation-1012-weight"
            }
        },
        {
            "resource": {
                "resourceType": "Observation",
                "id": "smart-Observation-1012-bmi",
                "text": {
                    "div": "<div>2006-09-21: bmi = 16.7 kg/m2</div>",
                    "status": "generated"
                },
                "category": {
                    "coding": [
                        {
                            "system": "http://hl7.org/fhir/observation-category",
                            "code": "vital-signs",
                            "display": "Vital Signs"
                        }
                    ],
                    "text": "Vital Signs"
                },
                "code": {
                    "coding": [
                        {
                            "system": "http://loinc.org",
                            "code": "39156-5",
                            "display": "bmi"
                        }
                    ],
                    "text": "bmi"
                },
                "valueQuantity": {
                    "value": 16.7,
                    "system": "http://unitsofmeasure.org",
                    "code": "kg/m2"
                },
                "status": "final",
                "subject": {
                    "reference": "Patient/smart-7777704"
                },
                "encounter": {
                    "reference": "Encounter/smart-Encounter-1012"
                }
            },
            "request": {
                "method": "PUT",
                "url": "Observation/smart-Observation-1012-bmi"
            }
        },
        {
            "resource": {
                "resourceType": "Observation",
                "id": "smart-Observation-1013-height",
                "text": {
                    "div": "<div>2006-10-27: height = 98.3 cm</div>",
                    "status": "generated"
                },
                "category": {
                    "coding": [
                        {
                            "system": "http://hl7.org/fhir/observation-category",
                            "code": "vital-signs",
                            "display": "Vital Signs"
                        }
                    ],
                    "text": "Vital Signs"
                },
                "code": {
                    "coding": [
                        {
                            "system": "http://loinc.org",
                            "code": "8302-2",
                            "display": "height"
                        }
                    ],
                    "text": "height"
                },
                "valueQuantity": {
                    "value": 98.3,
                    "system": "http://unitsofmeasure.org",
                    "code": "cm"
                },
                "status": "final",
                "subject": {
                    "reference": "Patient/smart-7777704"
                },
                "encounter": {
                    "reference": "Encounter/smart-Encounter-1013"
                }
            },
            "request": {
                "method": "PUT",
                "url": "Observation/smart-Observation-1013-height"
            }
        },
        {
            "resource": {
                "resourceType": "Observation",
                "id": "smart-Observation-1013-weight",
                "text": {
                    "div": "<div>2006-10-27: weight = 14.5 kg</div>",
                    "status": "generated"
                },
                "category": {
                    "coding": [
                        {
                            "system": "http://hl7.org/fhir/observation-category",
                            "code": "vital-signs",
                            "display": "Vital Signs"
                        }
                    ],
                    "text": "Vital Signs"
                },
                "code": {
                    "coding": [
                        {
                            "system": "http://loinc.org",
                            "code": "3141-9",
                            "display": "weight"
                        }
                    ],
                    "text": "weight"
                },
                "valueQuantity": {
                    "value": 14.5,
                    "system": "http://unitsofmeasure.org",
                    "code": "kg"
                },
                "status": "final",
                "subject": {
                    "reference": "Patient/smart-7777704"
                },
                "encounter": {
                    "reference": "Encounter/smart-Encounter-1013"
                }
            },
            "request": {
                "method": "PUT",
                "url": "Observation/smart-Observation-1013-weight"
            }
        },
        {
            "resource": {
                "resourceType": "Observation",
                "id": "smart-Observation-1013-bmi",
                "text": {
                    "div": "<div>2006-10-27: bmi = 15.1 kg/m2</div>",
                    "status": "generated"
                },
                "category": {
                    "coding": [
                        {
                            "system": "http://hl7.org/fhir/observation-category",
                            "code": "vital-signs",
                            "display": "Vital Signs"
                        }
                    ],
                    "text": "Vital Signs"
                },
                "code": {
                    "coding": [
                        {
                            "system": "http://loinc.org",
                            "code": "39156-5",
                            "display": "bmi"
                        }
                    ],
                    "text": "bmi"
                },
                "valueQuantity": {
                    "value": 15.1,
                    "system": "http://unitsofmeasure.org",
                    "code": "kg/m2"
                },
                "status": "final",
                "subject": {
                    "reference": "Patient/smart-7777704"
                },
                "encounter": {
                    "reference": "Encounter/smart-Encounter-1013"
                }
            },
            "request": {
                "method": "PUT",
                "url": "Observation/smart-Observation-1013-bmi"
            }
        },
        {
            "resource": {
                "resourceType": "Observation",
                "id": "smart-Observation-1014-height",
                "text": {
                    "div": "<div>2007-06-03: height = 100.7 cm</div>",
                    "status": "generated"
                },
                "category": {
                    "coding": [
                        {
                            "system": "http://hl7.org/fhir/observation-category",
                            "code": "vital-signs",
                            "display": "Vital Signs"
                        }
                    ],
                    "text": "Vital Signs"
                },
                "code": {
                    "coding": [
                        {
                            "system": "http://loinc.org",
                            "code": "8302-2",
                            "display": "height"
                        }
                    ],
                    "text": "height"
                },
                "valueQuantity": {
                    "value": 100.7,
                    "system": "http://unitsofmeasure.org",
                    "code": "cm"
                },
                "status": "final",
                "subject": {
                    "reference": "Patient/smart-7777704"
                },
                "encounter": {
                    "reference": "Encounter/smart-Encounter-1014"
                }
            },
            "request": {
                "method": "PUT",
                "url": "Observation/smart-Observation-1014-height"
            }
        },
        {
            "resource": {
                "resourceType": "Observation",
                "id": "smart-Observation-1014-weight",
                "text": {
                    "div": "<div>2007-06-03: weight = 17.5 kg</div>",
                    "status": "generated"
                },
                "category": {
                    "coding": [
                        {
                            "system": "http://hl7.org/fhir/observation-category",
                            "code": "vital-signs",
                            "display": "Vital Signs"
                        }
                    ],
                    "text": "Vital Signs"
                },
                "code": {
                    "coding": [
                        {
                            "system": "http://loinc.org",
                            "code": "3141-9",
                            "display": "weight"
                        }
                    ],
                    "text": "weight"
                },
                "valueQuantity": {
                    "value": 17.5,
                    "system": "http://unitsofmeasure.org",
                    "code": "kg"
                },
                "status": "final",
                "subject": {
                    "reference": "Patient/smart-7777704"
                },
                "encounter": {
                    "reference": "Encounter/smart-Encounter-1014"
                }
            },
            "request": {
                "method": "PUT",
                "url": "Observation/smart-Observation-1014-weight"
            }
        },
        {
            "resource": {
                "resourceType": "Observation",
                "id": "smart-Observation-1014-bmi",
                "text": {
                    "div": "<div>2007-06-03: bmi = 17.3 kg/m2</div>",
                    "status": "generated"
                },
                "category": {
                    "coding": [
                        {
                            "system": "http://hl7.org/fhir/observation-category",
                            "code": "vital-signs",
                            "display": "Vital Signs"
                        }
                    ],
                    "text": "Vital Signs"
                },
                "code": {
                    "coding": [
                        {
                            "system": "http://loinc.org",
                            "code": "39156-5",
                            "display": "bmi"
                        }
                    ],
                    "text": "bmi"
                },
                "valueQuantity": {
                    "value": 17.3,
                    "system": "http://unitsofmeasure.org",
                    "code": "kg/m2"
                },
                "status": "final",
                "subject": {
                    "reference": "Patient/smart-7777704"
                },
                "encounter": {
                    "reference": "Encounter/smart-Encounter-1014"
                }
            },
            "request": {
                "method": "PUT",
                "url": "Observation/smart-Observation-1014-bmi"
            }
        },
        {
            "resource": {
                "resourceType": "Observation",
                "id": "smart-Observation-1015-height",
                "text": {
                    "div": "<div>2007-08-15: height = 103.0 cm</div>",
                    "status": "generated"
                },
                "category": {
                    "coding": [
                        {
                            "system": "http://hl7.org/fhir/observation-category",
                            "code": "vital-signs",
                            "display": "Vital Signs"
                        }
                    ],
                    "text": "Vital Signs"
                },
                "code": {
                    "coding": [
                        {
                            "system": "http://loinc.org",
                            "code": "8302-2",
                            "display": "height"
                        }
                    ],
                    "text": "height"
                },
                "valueQuantity": {
                    "value": 103,
                    "system": "http://unitsofmeasure.org",
                    "code": "cm"
                },
                "status": "final",
                "subject": {
                    "reference": "Patient/smart-7777704"
                },
                "encounter": {
                    "reference": "Encounter/smart-Encounter-1015"
                }
            },
            "request": {
                "method": "PUT",
                "url": "Observation/smart-Observation-1015-height"
            }
        },
        {
            "resource": {
                "resourceType": "Observation",
                "id": "smart-Observation-1015-weight",
                "text": {
                    "div": "<div>2007-08-15: weight = 19.1 kg</div>",
                    "status": "generated"
                },
                "category": {
                    "coding": [
                        {
                            "system": "http://hl7.org/fhir/observation-category",
                            "code": "vital-signs",
                            "display": "Vital Signs"
                        }
                    ],
                    "text": "Vital Signs"
                },
                "code": {
                    "coding": [
                        {
                            "system": "http://loinc.org",
                            "code": "3141-9",
                            "display": "weight"
                        }
                    ],
                    "text": "weight"
                },
                "valueQuantity": {
                    "value": 19.1,
                    "system": "http://unitsofmeasure.org",
                    "code": "kg"
                },
                "status": "final",
                "subject": {
                    "reference": "Patient/smart-7777704"
                },
                "encounter": {
                    "reference": "Encounter/smart-Encounter-1015"
                }
            },
            "request": {
                "method": "PUT",
                "url": "Observation/smart-Observation-1015-weight"
            }
        },
        {
            "resource": {
                "resourceType": "Observation",
                "id": "smart-Observation-1015-bmi",
                "text": {
                    "div": "<div>2007-08-15: bmi = 18.1 kg/m2</div>",
                    "status": "generated"
                },
                "category": {
                    "coding": [
                        {
                            "system": "http://hl7.org/fhir/observation-category",
                            "code": "vital-signs",
                            "display": "Vital Signs"
                        }
                    ],
                    "text": "Vital Signs"
                },
                "code": {
                    "coding": [
                        {
                            "system": "http://loinc.org",
                            "code": "39156-5",
                            "display": "bmi"
                        }
                    ],
                    "text": "bmi"
                },
                "valueQuantity": {
                    "value": 18.1,
                    "system": "http://unitsofmeasure.org",
                    "code": "kg/m2"
                },
                "status": "final",
                "subject": {
                    "reference": "Patient/smart-7777704"
                },
                "encounter": {
                    "reference": "Encounter/smart-Encounter-1015"
                }
            },
            "request": {
                "method": "PUT",
                "url": "Observation/smart-Observation-1015-bmi"
            }
        },
        {
            "resource": {
                "resourceType": "Observation",
                "id": "smart-Observation-1016-height",
                "text": {
                    "div": "<div>2007-10-27: height = 105.7 cm</div>",
                    "status": "generated"
                },
                "category": {
                    "coding": [
                        {
                            "system": "http://hl7.org/fhir/observation-category",
                            "code": "vital-signs",
                            "display": "Vital Signs"
                        }
                    ],
                    "text": "Vital Signs"
                },
                "code": {
                    "coding": [
                        {
                            "system": "http://loinc.org",
                            "code": "8302-2",
                            "display": "height"
                        }
                    ],
                    "text": "height"
                },
                "valueQuantity": {
                    "value": 105.7,
                    "system": "http://unitsofmeasure.org",
                    "code": "cm"
                },
                "status": "final",
                "subject": {
                    "reference": "Patient/smart-7777704"
                },
                "encounter": {
                    "reference": "Encounter/smart-Encounter-1016"
                }
            },
            "request": {
                "method": "PUT",
                "url": "Observation/smart-Observation-1016-height"
            }
        },
        {
            "resource": {
                "resourceType": "Observation",
                "id": "smart-Observation-1016-weight",
                "text": {
                    "div": "<div>2007-10-27: weight = 21.0 kg</div>",
                    "status": "generated"
                },
                "category": {
                    "coding": [
                        {
                            "system": "http://hl7.org/fhir/observation-category",
                            "code": "vital-signs",
                            "display": "Vital Signs"
                        }
                    ],
                    "text": "Vital Signs"
                },
                "code": {
                    "coding": [
                        {
                            "system": "http://loinc.org",
                            "code": "3141-9",
                            "display": "weight"
                        }
                    ],
                    "text": "weight"
                },
                "valueQuantity": {
                    "value": 21,
                    "system": "http://unitsofmeasure.org",
                    "code": "kg"
                },
                "status": "final",
                "subject": {
                    "reference": "Patient/smart-7777704"
                },
                "encounter": {
                    "reference": "Encounter/smart-Encounter-1016"
                }
            },
            "request": {
                "method": "PUT",
                "url": "Observation/smart-Observation-1016-weight"
            }
        },
        {
            "resource": {
                "resourceType": "Observation",
                "id": "smart-Observation-1016-bmi",
                "text": {
                    "div": "<div>2007-10-27: bmi = 18.8 kg/m2</div>",
                    "status": "generated"
                },
                "category": {
                    "coding": [
                        {
                            "system": "http://hl7.org/fhir/observation-category",
                            "code": "vital-signs",
                            "display": "Vital Signs"
                        }
                    ],
                    "text": "Vital Signs"
                },
                "code": {
                    "coding": [
                        {
                            "system": "http://loinc.org",
                            "code": "39156-5",
                            "display": "bmi"
                        }
                    ],
                    "text": "bmi"
                },
                "valueQuantity": {
                    "value": 18.8,
                    "system": "http://unitsofmeasure.org",
                    "code": "kg/m2"
                },
                "status": "final",
                "subject": {
                    "reference": "Patient/smart-7777704"
                },
                "encounter": {
                    "reference": "Encounter/smart-Encounter-1016"
                }
            },
            "request": {
                "method": "PUT",
                "url": "Observation/smart-Observation-1016-bmi"
            }
        },
        {
            "resource": {
                "resourceType": "Observation",
                "id": "smart-Observation-1017-height",
                "text": {
                    "div": "<div>2008-02-14: height = 108.1 cm</div>",
                    "status": "generated"
                },
                "category": {
                    "coding": [
                        {
                            "system": "http://hl7.org/fhir/observation-category",
                            "code": "vital-signs",
                            "display": "Vital Signs"
                        }
                    ],
                    "text": "Vital Signs"
                },
                "code": {
                    "coding": [
                        {
                            "system": "http://loinc.org",
                            "code": "8302-2",
                            "display": "height"
                        }
                    ],
                    "text": "height"
                },
                "valueQuantity": {
                    "value": 108.1,
                    "system": "http://unitsofmeasure.org",
                    "code": "cm"
                },
                "status": "final",
                "subject": {
                    "reference": "Patient/smart-7777704"
                },
                "encounter": {
                    "reference": "Encounter/smart-Encounter-1017"
                }
            },
            "request": {
                "method": "PUT",
                "url": "Observation/smart-Observation-1017-height"
            }
        },
        {
            "resource": {
                "resourceType": "Observation",
                "id": "smart-Observation-1017-weight",
                "text": {
                    "div": "<div>2008-02-14: weight = 21.3 kg</div>",
                    "status": "generated"
                },
                "category": {
                    "coding": [
                        {
                            "system": "http://hl7.org/fhir/observation-category",
                            "code": "vital-signs",
                            "display": "Vital Signs"
                        }
                    ],
                    "text": "Vital Signs"
                },
                "code": {
                    "coding": [
                        {
                            "system": "http://loinc.org",
                            "code": "3141-9",
                            "display": "weight"
                        }
                    ],
                    "text": "weight"
                },
                "valueQuantity": {
                    "value": 21.3,
                    "system": "http://unitsofmeasure.org",
                    "code": "kg"
                },
                "status": "final",
                "subject": {
                    "reference": "Patient/smart-7777704"
                },
                "encounter": {
                    "reference": "Encounter/smart-Encounter-1017"
                }
            },
            "request": {
                "method": "PUT",
                "url": "Observation/smart-Observation-1017-weight"
            }
        },
        {
            "resource": {
                "resourceType": "Observation",
                "id": "smart-Observation-1017-bmi",
                "text": {
                    "div": "<div>2008-02-14: bmi = 18.2 kg/m2</div>",
                    "status": "generated"
                },
                "category": {
                    "coding": [
                        {
                            "system": "http://hl7.org/fhir/observation-category",
                            "code": "vital-signs",
                            "display": "Vital Signs"
                        }
                    ],
                    "text": "Vital Signs"
                },
                "code": {
                    "coding": [
                        {
                            "system": "http://loinc.org",
                            "code": "39156-5",
                            "display": "bmi"
                        }
                    ],
                    "text": "bmi"
                },
                "valueQuantity": {
                    "value": 18.2,
                    "system": "http://unitsofmeasure.org",
                    "code": "kg/m2"
                },
                "status": "final",
                "subject": {
                    "reference": "Patient/smart-7777704"
                },
                "encounter": {
                    "reference": "Encounter/smart-Encounter-1017"
                }
            },
            "request": {
                "method": "PUT",
                "url": "Observation/smart-Observation-1017-bmi"
            }
        },
        {
            "resource": {
                "resourceType": "Observation",
                "id": "smart-Observation-1018-height",
                "text": {
                    "div": "<div>2010-03-21: height = 121.6 cm</div>",
                    "status": "generated"
                },
                "category": {
                    "coding": [
                        {
                            "system": "http://hl7.org/fhir/observation-category",
                            "code": "vital-signs",
                            "display": "Vital Signs"
                        }
                    ],
                    "text": "Vital Signs"
                },
                "code": {
                    "coding": [
                        {
                            "system": "http://loinc.org",
                            "code": "8302-2",
                            "display": "height"
                        }
                    ],
                    "text": "height"
                },
                "valueQuantity": {
                    "value": 121.6,
                    "system": "http://unitsofmeasure.org",
                    "code": "cm"
                },
                "status": "final",
                "subject": {
                    "reference": "Patient/smart-7777704"
                },
                "encounter": {
                    "reference": "Encounter/smart-Encounter-1018"
                }
            },
            "request": {
                "method": "PUT",
                "url": "Observation/smart-Observation-1018-height"
            }
        },
        {
            "resource": {
                "resourceType": "Observation",
                "id": "smart-Observation-1018-weight",
                "text": {
                    "div": "<div>2010-03-21: weight = 27.5 kg</div>",
                    "status": "generated"
                },
                "category": {
                    "coding": [
                        {
                            "system": "http://hl7.org/fhir/observation-category",
                            "code": "vital-signs",
                            "display": "Vital Signs"
                        }
                    ],
                    "text": "Vital Signs"
                },
                "code": {
                    "coding": [
                        {
                            "system": "http://loinc.org",
                            "code": "3141-9",
                            "display": "weight"
                        }
                    ],
                    "text": "weight"
                },
                "valueQuantity": {
                    "value": 27.5,
                    "system": "http://unitsofmeasure.org",
                    "code": "kg"
                },
                "status": "final",
                "subject": {
                    "reference": "Patient/smart-7777704"
                },
                "encounter": {
                    "reference": "Encounter/smart-Encounter-1018"
                }
            },
            "request": {
                "method": "PUT",
                "url": "Observation/smart-Observation-1018-weight"
            }
        },
        {
            "resource": {
                "resourceType": "Observation",
                "id": "smart-Observation-1018-bmi",
                "text": {
                    "div": "<div>2010-03-21: bmi = 18.7 kg/m2</div>",
                    "status": "generated"
                },
                "category": {
                    "coding": [
                        {
                            "system": "http://hl7.org/fhir/observation-category",
                            "code": "vital-signs",
                            "display": "Vital Signs"
                        }
                    ],
                    "text": "Vital Signs"
                },
                "code": {
                    "coding": [
                        {
                            "system": "http://loinc.org",
                            "code": "39156-5",
                            "display": "bmi"
                        }
                    ],
                    "text": "bmi"
                },
                "valueQuantity": {
                    "value": 18.7,
                    "system": "http://unitsofmeasure.org",
                    "code": "kg/m2"
                },
                "status": "final",
                "subject": {
                    "reference": "Patient/smart-7777704"
                },
                "encounter": {
                    "reference": "Encounter/smart-Encounter-1018"
                }
            },
            "request": {
                "method": "PUT",
                "url": "Observation/smart-Observation-1018-bmi"
            }
        },
        {
            "resource": {
                "resourceType": "Observation",
                "id": "smart-Observation-1019-height",
                "text": {
                    "div": "<div>2011-01-07: height = 124.7 cm</div>",
                    "status": "generated"
                },
                "category": {
                    "coding": [
                        {
                            "system": "http://hl7.org/fhir/observation-category",
                            "code": "vital-signs",
                            "display": "Vital Signs"
                        }
                    ],
                    "text": "Vital Signs"
                },
                "code": {
                    "coding": [
                        {
                            "system": "http://loinc.org",
                            "code": "8302-2",
                            "display": "height"
                        }
                    ],
                    "text": "height"
                },
                "valueQuantity": {
                    "value": 124.7,
                    "system": "http://unitsofmeasure.org",
                    "code": "cm"
                },
                "status": "final",
                "subject": {
                    "reference": "Patient/smart-7777704"
                },
                "encounter": {
                    "reference": "Encounter/smart-Encounter-1019"
                }
            },
            "request": {
                "method": "PUT",
                "url": "Observation/smart-Observation-1019-height"
            }
        },
        {
            "resource": {
                "resourceType": "Observation",
                "id": "smart-Observation-1019-weight",
                "text": {
                    "div": "<div>2011-01-07: weight = 30.5 kg</div>",
                    "status": "generated"
                },
                "category": {
                    "coding": [
                        {
                            "system": "http://hl7.org/fhir/observation-category",
                            "code": "vital-signs",
                            "display": "Vital Signs"
                        }
                    ],
                    "text": "Vital Signs"
                },
                "code": {
                    "coding": [
                        {
                            "system": "http://loinc.org",
                            "code": "3141-9",
                            "display": "weight"
                        }
                    ],
                    "text": "weight"
                },
                "valueQuantity": {
                    "value": 30.5,
                    "system": "http://unitsofmeasure.org",
                    "code": "kg"
                },
                "status": "final",
                "subject": {
                    "reference": "Patient/smart-7777704"
                },
                "encounter": {
                    "reference": "Encounter/smart-Encounter-1019"
                }
            },
            "request": {
                "method": "PUT",
                "url": "Observation/smart-Observation-1019-weight"
            }
        },
        {
            "resource": {
                "resourceType": "Observation",
                "id": "smart-Observation-1019-bmi",
                "text": {
                    "div": "<div>2011-01-07: bmi = 19.7 kg/m2</div>",
                    "status": "generated"
                },
                "category": {
                    "coding": [
                        {
                            "system": "http://hl7.org/fhir/observation-category",
                            "code": "vital-signs",
                            "display": "Vital Signs"
                        }
                    ],
                    "text": "Vital Signs"
                },
                "code": {
                    "coding": [
                        {
                            "system": "http://loinc.org",
                            "code": "39156-5",
                            "display": "bmi"
                        }
                    ],
                    "text": "bmi"
                },
                "valueQuantity": {
                    "value": 19.7,
                    "system": "http://unitsofmeasure.org",
                    "code": "kg/m2"
                },
                "status": "final",
                "subject": {
                    "reference": "Patient/smart-7777704"
                },
                "encounter": {
                    "reference": "Encounter/smart-Encounter-1019"
                }
            },
            "request": {
                "method": "PUT",
                "url": "Observation/smart-Observation-1019-bmi"
            }
        },
        {
            "resource": {
                "resourceType": "Observation",
                "id": "smart-Observation-1020-height",
                "text": {
                    "div": "<div>2011-09-20: height = 134.5 cm</div>",
                    "status": "generated"
                },
                "category": {
                    "coding": [
                        {
                            "system": "http://hl7.org/fhir/observation-category",
                            "code": "vital-signs",
                            "display": "Vital Signs"
                        }
                    ],
                    "text": "Vital Signs"
                },
                "code": {
                    "coding": [
                        {
                            "system": "http://loinc.org",
                            "code": "8302-2",
                            "display": "height"
                        }
                    ],
                    "text": "height"
                },
                "valueQuantity": {
                    "value": 134.5,
                    "system": "http://unitsofmeasure.org",
                    "code": "cm"
                },
                "status": "final",
                "subject": {
                    "reference": "Patient/smart-7777704"
                },
                "encounter": {
                    "reference": "Encounter/smart-Encounter-1020"
                }
            },
            "request": {
                "method": "PUT",
                "url": "Observation/smart-Observation-1020-height"
            }
        },
        {
            "resource": {
                "resourceType": "Observation",
                "id": "smart-Observation-1020-weight",
                "text": {
                    "div": "<div>2011-09-20: weight = 34.4 kg</div>",
                    "status": "generated"
                },
                "category": {
                    "coding": [
                        {
                            "system": "http://hl7.org/fhir/observation-category",
                            "code": "vital-signs",
                            "display": "Vital Signs"
                        }
                    ],
                    "text": "Vital Signs"
                },
                "code": {
                    "coding": [
                        {
                            "system": "http://loinc.org",
                            "code": "3141-9",
                            "display": "weight"
                        }
                    ],
                    "text": "weight"
                },
                "valueQuantity": {
                    "value": 34.4,
                    "system": "http://unitsofmeasure.org",
                    "code": "kg"
                },
                "status": "final",
                "subject": {
                    "reference": "Patient/smart-7777704"
                },
                "encounter": {
                    "reference": "Encounter/smart-Encounter-1020"
                }
            },
            "request": {
                "method": "PUT",
                "url": "Observation/smart-Observation-1020-weight"
            }
        },
        {
            "resource": {
                "resourceType": "Observation",
                "id": "smart-Observation-1020-bmi",
                "text": {
                    "div": "<div>2011-09-20: bmi = 19.1 kg/m2</div>",
                    "status": "generated"
                },
                "category": {
                    "coding": [
                        {
                            "system": "http://hl7.org/fhir/observation-category",
                            "code": "vital-signs",
                            "display": "Vital Signs"
                        }
                    ],
                    "text": "Vital Signs"
                },
                "code": {
                    "coding": [
                        {
                            "system": "http://loinc.org",
                            "code": "39156-5",
                            "display": "bmi"
                        }
                    ],
                    "text": "bmi"
                },
                "valueQuantity": {
                    "value": 19.1,
                    "system": "http://unitsofmeasure.org",
                    "code": "kg/m2"
                },
                "status": "final",
                "subject": {
                    "reference": "Patient/smart-7777704"
                },
                "encounter": {
                    "reference": "Encounter/smart-Encounter-1020"
                }
            },
            "request": {
                "method": "PUT",
                "url": "Observation/smart-Observation-1020-bmi"
            }
        },
        {
            "resource": {
                "resourceType": "Observation",
                "id": "smart-Observation-1021-height",
                "text": {
                    "div": "<div>2011-12-02: height = 133.4 cm</div>",
                    "status": "generated"
                },
                "category": {
                    "coding": [
                        {
                            "system": "http://hl7.org/fhir/observation-category",
                            "code": "vital-signs",
                            "display": "Vital Signs"
                        }
                    ],
                    "text": "Vital Signs"
                },
                "code": {
                    "coding": [
                        {
                            "system": "http://loinc.org",
                            "code": "8302-2",
                            "display": "height"
                        }
                    ],
                    "text": "height"
                },
                "valueQuantity": {
                    "value": 133.4,
                    "system": "http://unitsofmeasure.org",
                    "code": "cm"
                },
                "status": "final",
                "subject": {
                    "reference": "Patient/smart-7777704"
                },
                "encounter": {
                    "reference": "Encounter/smart-Encounter-1021"
                }
            },
            "request": {
                "method": "PUT",
                "url": "Observation/smart-Observation-1021-height"
            }
        },
        {
            "resource": {
                "resourceType": "Observation",
                "id": "smart-Observation-1021-weight",
                "text": {
                    "div": "<div>2011-12-02: weight = 37.6 kg</div>",
                    "status": "generated"
                },
                "category": {
                    "coding": [
                        {
                            "system": "http://hl7.org/fhir/observation-category",
                            "code": "vital-signs",
                            "display": "Vital Signs"
                        }
                    ],
                    "text": "Vital Signs"
                },
                "code": {
                    "coding": [
                        {
                            "system": "http://loinc.org",
                            "code": "3141-9",
                            "display": "weight"
                        }
                    ],
                    "text": "weight"
                },
                "valueQuantity": {
                    "value": 37.6,
                    "system": "http://unitsofmeasure.org",
                    "code": "kg"
                },
                "status": "final",
                "subject": {
                    "reference": "Patient/smart-7777704"
                },
                "encounter": {
                    "reference": "Encounter/smart-Encounter-1021"
                }
            },
            "request": {
                "method": "PUT",
                "url": "Observation/smart-Observation-1021-weight"
            }
        },
        {
            "resource": {
                "resourceType": "Observation",
                "id": "smart-Observation-1021-bmi",
                "text": {
                    "div": "<div>2011-12-02: bmi = 21.5 kg/m2</div>",
                    "status": "generated"
                },
                "category": {
                    "coding": [
                        {
                            "system": "http://hl7.org/fhir/observation-category",
                            "code": "vital-signs",
                            "display": "Vital Signs"
                        }
                    ],
                    "text": "Vital Signs"
                },
                "code": {
                    "coding": [
                        {
                            "system": "http://loinc.org",
                            "code": "39156-5",
                            "display": "bmi"
                        }
                    ],
                    "text": "bmi"
                },
                "valueQuantity": {
                    "value": 21.5,
                    "system": "http://unitsofmeasure.org",
                    "code": "kg/m2"
                },
                "status": "final",
                "subject": {
                    "reference": "Patient/smart-7777704"
                },
                "encounter": {
                    "reference": "Encounter/smart-Encounter-1021"
                }
            },
            "request": {
                "method": "PUT",
                "url": "Observation/smart-Observation-1021-bmi"
            }
        },
        {
            "resource": {
                "resourceType": "Observation",
                "id": "smart-Observation-1022-height",
                "text": {
                    "div": "<div>2012-02-13: height = 133.5 cm</div>",
                    "status": "generated"
                },
                "category": {
                    "coding": [
                        {
                            "system": "http://hl7.org/fhir/observation-category",
                            "code": "vital-signs",
                            "display": "Vital Signs"
                        }
                    ],
                    "text": "Vital Signs"
                },
                "code": {
                    "coding": [
                        {
                            "system": "http://loinc.org",
                            "code": "8302-2",
                            "display": "height"
                        }
                    ],
                    "text": "height"
                },
                "valueQuantity": {
                    "value": 133.5,
                    "system": "http://unitsofmeasure.org",
                    "code": "cm"
                },
                "status": "final",
                "subject": {
                    "reference": "Patient/smart-7777704"
                },
                "encounter": {
                    "reference": "Encounter/smart-Encounter-1022"
                }
            },
            "request": {
                "method": "PUT",
                "url": "Observation/smart-Observation-1022-height"
            }
        },
        {
            "resource": {
                "resourceType": "Observation",
                "id": "smart-Observation-1022-weight",
                "text": {
                    "div": "<div>2012-02-13: weight = 39.8 kg</div>",
                    "status": "generated"
                },
                "category": {
                    "coding": [
                        {
                            "system": "http://hl7.org/fhir/observation-category",
                            "code": "vital-signs",
                            "display": "Vital Signs"
                        }
                    ],
                    "text": "Vital Signs"
                },
                "code": {
                    "coding": [
                        {
                            "system": "http://loinc.org",
                            "code": "3141-9",
                            "display": "weight"
                        }
                    ],
                    "text": "weight"
                },
                "valueQuantity": {
                    "value": 39.8,
                    "system": "http://unitsofmeasure.org",
                    "code": "kg"
                },
                "status": "final",
                "subject": {
                    "reference": "Patient/smart-7777704"
                },
                "encounter": {
                    "reference": "Encounter/smart-Encounter-1022"
                }
            },
            "request": {
                "method": "PUT",
                "url": "Observation/smart-Observation-1022-weight"
            }
        },
        {
            "resource": {
                "resourceType": "Observation",
                "id": "smart-Observation-1022-bmi",
                "text": {
                    "div": "<div>2012-02-13: bmi = 23.3 kg/m2</div>",
                    "status": "generated"
                },
                "category": {
                    "coding": [
                        {
                            "system": "http://hl7.org/fhir/observation-category",
                            "code": "vital-signs",
                            "display": "Vital Signs"
                        }
                    ],
                    "text": "Vital Signs"
                },
                "code": {
                    "coding": [
                        {
                            "system": "http://loinc.org",
                            "code": "39156-5",
                            "display": "bmi"
                        }
                    ],
                    "text": "bmi"
                },
                "valueQuantity": {
                    "value": 23.3,
                    "system": "http://unitsofmeasure.org",
                    "code": "kg/m2"
                },
                "status": "final",
                "subject": {
                    "reference": "Patient/smart-7777704"
                },
                "encounter": {
                    "reference": "Encounter/smart-Encounter-1022"
                }
            },
            "request": {
                "method": "PUT",
                "url": "Observation/smart-Observation-1022-bmi"
            }
        },
        {
            "resource": {
                "resourceType": "Observation",
                "id": "smart-Observation-1023-height",
                "text": {
                    "div": "<div>2012-07-08: height = 135.3 cm</div>",
                    "status": "generated"
                },
                "category": {
                    "coding": [
                        {
                            "system": "http://hl7.org/fhir/observation-category",
                            "code": "vital-signs",
                            "display": "Vital Signs"
                        }
                    ],
                    "text": "Vital Signs"
                },
                "code": {
                    "coding": [
                        {
                            "system": "http://loinc.org",
                            "code": "8302-2",
                            "display": "height"
                        }
                    ],
                    "text": "height"
                },
                "valueQuantity": {
                    "value": 135.3,
                    "system": "http://unitsofmeasure.org",
                    "code": "cm"
                },
                "status": "final",
                "subject": {
                    "reference": "Patient/smart-7777704"
                },
                "encounter": {
                    "reference": "Encounter/smart-Encounter-1023"
                }
            },
            "request": {
                "method": "PUT",
                "url": "Observation/smart-Observation-1023-height"
            }
        },
        {
            "resource": {
                "resourceType": "Observation",
                "id": "smart-Observation-1023-weight",
                "text": {
                    "div": "<div>2012-07-08: weight = 42.2 kg</div>",
                    "status": "generated"
                },
                "category": {
                    "coding": [
                        {
                            "system": "http://hl7.org/fhir/observation-category",
                            "code": "vital-signs",
                            "display": "Vital Signs"
                        }
                    ],
                    "text": "Vital Signs"
                },
                "code": {
                    "coding": [
                        {
                            "system": "http://loinc.org",
                            "code": "3141-9",
                            "display": "weight"
                        }
                    ],
                    "text": "weight"
                },
                "valueQuantity": {
                    "value": 42.2,
                    "system": "http://unitsofmeasure.org",
                    "code": "kg"
                },
                "status": "final",
                "subject": {
                    "reference": "Patient/smart-7777704"
                },
                "encounter": {
                    "reference": "Encounter/smart-Encounter-1023"
                }
            },
            "request": {
                "method": "PUT",
                "url": "Observation/smart-Observation-1023-weight"
            }
        },
        {
            "resource": {
                "resourceType": "Observation",
                "id": "smart-Observation-1023-bmi",
                "text": {
                    "div": "<div>2012-07-08: bmi = 23.1 kg/m2</div>",
                    "status": "generated"
                },
                "category": {
                    "coding": [
                        {
                            "system": "http://hl7.org/fhir/observation-category",
                            "code": "vital-signs",
                            "display": "Vital Signs"
                        }
                    ],
                    "text": "Vital Signs"
                },
                "code": {
                    "coding": [
                        {
                            "system": "http://loinc.org",
                            "code": "39156-5",
                            "display": "bmi"
                        }
                    ],
                    "text": "bmi"
                },
                "valueQuantity": {
                    "value": 23.1,
                    "system": "http://unitsofmeasure.org",
                    "code": "kg/m2"
                },
                "status": "final",
                "subject": {
                    "reference": "Patient/smart-7777704"
                },
                "encounter": {
                    "reference": "Encounter/smart-Encounter-1023"
                }
            },
            "request": {
                "method": "PUT",
                "url": "Observation/smart-Observation-1023-bmi"
            }
        },
        {
            "resource": {
                "resourceType": "Observation",
                "id": "smart-Observation-1024-height",
                "text": {
                    "div": "<div>2012-12-01: height = 138.1 cm</div>",
                    "status": "generated"
                },
                "category": {
                    "coding": [
                        {
                            "system": "http://hl7.org/fhir/observation-category",
                            "code": "vital-signs",
                            "display": "Vital Signs"
                        }
                    ],
                    "text": "Vital Signs"
                },
                "code": {
                    "coding": [
                        {
                            "system": "http://loinc.org",
                            "code": "8302-2",
                            "display": "height"
                        }
                    ],
                    "text": "height"
                },
                "valueQuantity": {
                    "value": 138.1,
                    "system": "http://unitsofmeasure.org",
                    "code": "cm"
                },
                "status": "final",
                "subject": {
                    "reference": "Patient/smart-7777704"
                },
                "encounter": {
                    "reference": "Encounter/smart-Encounter-1024"
                }
            },
            "request": {
                "method": "PUT",
                "url": "Observation/smart-Observation-1024-height"
            }
        },
        {
            "resource": {
                "resourceType": "Observation",
                "id": "smart-Observation-1024-weight",
                "text": {
                    "div": "<div>2012-12-01: weight = 44.9 kg</div>",
                    "status": "generated"
                },
                "category": {
                    "coding": [
                        {
                            "system": "http://hl7.org/fhir/observation-category",
                            "code": "vital-signs",
                            "display": "Vital Signs"
                        }
                    ],
                    "text": "Vital Signs"
                },
                "code": {
                    "coding": [
                        {
                            "system": "http://loinc.org",
                            "code": "3141-9",
                            "display": "weight"
                        }
                    ],
                    "text": "weight"
                },
                "valueQuantity": {
                    "value": 44.9,
                    "system": "http://unitsofmeasure.org",
                    "code": "kg"
                },
                "status": "final",
                "subject": {
                    "reference": "Patient/smart-7777704"
                },
                "encounter": {
                    "reference": "Encounter/smart-Encounter-1024"
                }
            },
            "request": {
                "method": "PUT",
                "url": "Observation/smart-Observation-1024-weight"
            }
        },
        {
            "resource": {
                "resourceType": "Observation",
                "id": "smart-Observation-1024-bmi",
                "text": {
                    "div": "<div>2012-12-01: bmi = 23.5 kg/m2</div>",
                    "status": "generated"
                },
                "category": {
                    "coding": [
                        {
                            "system": "http://hl7.org/fhir/observation-category",
                            "code": "vital-signs",
                            "display": "Vital Signs"
                        }
                    ],
                    "text": "Vital Signs"
                },
                "code": {
                    "coding": [
                        {
                            "system": "http://loinc.org",
                            "code": "39156-5",
                            "display": "bmi"
                        }
                    ],
                    "text": "bmi"
                },
                "valueQuantity": {
                    "value": 23.5,
                    "system": "http://unitsofmeasure.org",
                    "code": "kg/m2"
                },
                "status": "final",
                "subject": {
                    "reference": "Patient/smart-7777704"
                },
                "encounter": {
                    "reference": "Encounter/smart-Encounter-1024"
                }
            },
            "request": {
                "method": "PUT",
                "url": "Observation/smart-Observation-1024-bmi"
            }
        },
        {
            "resource": {
                "resourceType": "Observation",
                "id": "smart-Observation-3505-lab",
                "text": {
                    "div": "<div>2012-07-08: Bones XR Bone Age = 123 mo</div>",
                    "status": "generated"
                },
                "category": {
                    "coding": [
                        {
                            "system": "http://hl7.org/fhir/observation-category",
                            "code": "laboratory",
                            "display": "Laboratory"
                        }
                    ],
                    "text": "Laboratory"
                },
                "code": {
                    "coding": [
                        {
                            "system": "http://loinc.org",
                            "code": "37362-1",
                            "display": "Bones XR Bone Age"
                        }
                    ],
                    "text": "Bones XR Bone Age"
                },
                "valueQuantity": {
                    "value": 123,
                    "system": "http://unitsofmeasure.org"
                },
                "status": "final",
                "subject": {
                    "reference": "Patient/smart-7777704"
                }
            },
            "request": {
                "method": "PUT",
                "url": "Observation/smart-Observation-3505-lab"
            }
        },
        {
            "resource": {
                "resourceType": "FamilyMemberHistory",
                "id": "smart-FamilyMemberHistory-13",
                "extension": [
                    {
                        "url": "http://fhir-registry.smarthealthit.org/StructureDefinition/family-history#height",
                        "valueQuantity": {
                            "value": 178,
                            "system": "http://unitsofmeasure.org",
                            "code": "cm"
                        }
                    }
                ],
                "text": {
                    "div": "<div>Data on patient's Father</div>",
                    "status": "generated"
                },
                "patient": {
                    "reference": "Patient/smart-7777704"
                },
                "relationship": {
                    "coding": [
                        {
                            "system": "http://hl7.org/fhir/v3/RoleCode",
                            "code": "FTH",
                            "display": "father"
                        }
                    ]
                }
            },
            "request": {
                "method": "PUT",
                "url": "FamilyMemberHistory/smart-FamilyMemberHistory-13"
            }
        },
        {
            "resource": {
                "resourceType": "FamilyMemberHistory",
                "id": "smart-FamilyMemberHistory-14",
                "extension": [
                    {
                        "url": "http://fhir-registry.smarthealthit.org/StructureDefinition/family-history#height",
                        "valueQuantity": {
                            "value": 164,
                            "system": "http://unitsofmeasure.org",
                            "code": "cm"
                        }
                    }
                ],
                "text": {
                    "div": "<div>Data on patient's Mother</div>",
                    "status": "generated"
                },
                "patient": {
                    "reference": "Patient/smart-7777704"
                },
                "relationship": {
                    "coding": [
                        {
                            "system": "http://hl7.org/fhir/v3/RoleCode",
                            "code": "MTH",
                            "display": "mother"
                        }
                    ]
                }
            },
            "request": {
                "method": "PUT",
                "url": "FamilyMemberHistory/smart-FamilyMemberHistory-14"
            }
        }
    ]
}