{
    "resourceType": "Bundle",
    "type": "transaction",
    "entry": [
        {
            "resource": {
                "resourceType": "Patient",
                "id": "smart-7777701",
                "text": {
                    "div": "<div><p>Steve Richey</p></div>",
                    "status": "generated"
                },
                "identifier": [
                    {
                        "use": "usual",
                        "system": "http://hospital.smarthealthit.org",
                        "value": "7777701"
                    }
                ],
                "name": [
                    {
                        "use": "official",
                        "family": [
                            "Richey"
                        ],
                        "given": [
                            "Steve"
                        ]
                    }
                ],
                "gender": "male",
                "birthDate": "2011-09-16",
                "active": true,
                "meta": {
                    "tag": [
                        {
                            "system": "https://smarthealthit.org/tags",
                            "code": "smart-8-2017"
                        }
                    ]
                }
            },
            "request": {
                "method": "PUT",
                "url": "Patient/smart-7777701"
            }
        },
        {
            "resource": {
                "resourceType": "Encounter",
                "id": "smart-Encounter-967",
                "text": {
                    "div": "<div>2011-09-16: ambulatory encounter</div>",
                    "status": "generated"
                },
                "status": "finished",
                "class": "ambulatory",
                "patient": {
                    "reference": "Patient/smart-7777701"
                },
                "period": {
                    "start": "2011-09-16",
                    "end": "2011-09-16"
                },
                "meta": {
                    "tag": [
                        {
                            "system": "https://smarthealthit.org/tags",
                            "code": "smart-8-2017"
                        }
                    ]
                }
            },
            "request": {
                "method": "PUT",
                "url": "Encounter/smart-Encounter-967"
            }
        },
        {
            "resource": {
                "resourceType": "Encounter",
                "id": "smart-Encounter-968",
                "text": {
                    "div": "<div>2011-11-22: ambulatory encounter</div>",
                    "status": "generated"
                },
                "status": "finished",
                "class": "ambulatory",
                "patient": {
                    "reference": "Patient/smart-7777701"
                },
                "period": {
                    "start": "2011-11-22",
                    "end": "2011-11-22"
                },
                "meta": {
                    "tag": [
                        {
                            "system": "https://smarthealthit.org/tags",
                            "code": "smart-8-2017"
                        }
                    ]
                }
            },
            "request": {
                "method": "PUT",
                "url": "Encounter/smart-Encounter-968"
            }
        },
        {
            "resource": {
                "resourceType": "Encounter",
                "id": "smart-Encounter-969",
                "text": {
                    "div": "<div>2011-12-01: ambulatory encounter</div>",
                    "status": "generated"
                },
                "status": "finished",
                "class": "ambulatory",
                "patient": {
                    "reference": "Patient/smart-7777701"
                },
                "period": {
                    "start": "2011-12-01",
                    "end": "2011-12-01"
                },
                "meta": {
                    "tag": [
                        {
                            "system": "https://smarthealthit.org/tags",
                            "code": "smart-8-2017"
                        }
                    ]
                }
            },
            "request": {
                "method": "PUT",
                "url": "Encounter/smart-Encounter-969"
            }
        },
        {
            "resource": {
                "resourceType": "Encounter",
                "id": "smart-Encounter-970",
                "text": {
                    "div": "<div>2011-12-16: ambulatory encounter</div>",
                    "status": "generated"
                },
                "status": "finished",
                "class": "ambulatory",
                "patient": {
                    "reference": "Patient/smart-7777701"
                },
                "period": {
                    "start": "2011-12-16",
                    "end": "2011-12-16"
                },
                "meta": {
                    "tag": [
                        {
                            "system": "https://smarthealthit.org/tags",
                            "code": "smart-8-2017"
                        }
                    ]
                }
            },
            "request": {
                "method": "PUT",
                "url": "Encounter/smart-Encounter-970"
            }
        },
        {
            "resource": {
                "resourceType": "Encounter",
                "id": "smart-Encounter-971",
                "text": {
                    "div": "<div>2012-01-10: ambulatory encounter</div>",
                    "status": "generated"
                },
                "status": "finished",
                "class": "ambulatory",
                "patient": {
                    "reference": "Patient/smart-7777701"
                },
                "period": {
                    "start": "2012-01-10",
                    "end": "2012-01-10"
                },
                "meta": {
                    "tag": [
                        {
                            "system": "https://smarthealthit.org/tags",
                            "code": "smart-8-2017"
                        }
                    ]
                }
            },
            "request": {
                "method": "PUT",
                "url": "Encounter/smart-Encounter-971"
            }
        },
        {
            "resource": {
                "resourceType": "Encounter",
                "id": "smart-Encounter-972",
                "text": {
                    "div": "<div>2012-02-03: ambulatory encounter</div>",
                    "status": "generated"
                },
                "status": "finished",
                "class": "ambulatory",
                "patient": {
                    "reference": "Patient/smart-7777701"
                },
                "period": {
                    "start": "2012-02-03",
                    "end": "2012-02-03"
                },
                "meta": {
                    "tag": [
                        {
                            "system": "https://smarthealthit.org/tags",
                            "code": "smart-8-2017"
                        }
                    ]
                }
            },
            "request": {
                "method": "PUT",
                "url": "Encounter/smart-Encounter-972"
            }
        },
        {
            "resource": {
                "resourceType": "Encounter",
                "id": "smart-Encounter-973",
                "text": {
                    "div": "<div>2012-02-09: ambulatory encounter</div>",
                    "status": "generated"
                },
                "status": "finished",
                "class": "ambulatory",
                "patient": {
                    "reference": "Patient/smart-7777701"
                },
                "period": {
                    "start": "2012-02-09",
                    "end": "2012-02-09"
                },
                "meta": {
                    "tag": [
                        {
                            "system": "https://smarthealthit.org/tags",
                            "code": "smart-8-2017"
                        }
                    ]
                }
            },
            "request": {
                "method": "PUT",
                "url": "Encounter/smart-Encounter-973"
            }
        },
        {
            "resource": {
                "resourceType": "Encounter",
                "id": "smart-Encounter-974",
                "text": {
                    "div": "<div>2012-03-10: ambulatory encounter</div>",
                    "status": "generated"
                },
                "status": "finished",
                "class": "ambulatory",
                "patient": {
                    "reference": "Patient/smart-7777701"
                },
                "period": {
                    "start": "2012-03-10",
                    "end": "2012-03-10"
                },
                "meta": {
                    "tag": [
                        {
                            "system": "https://smarthealthit.org/tags",
                            "code": "smart-8-2017"
                        }
                    ]
                }
            },
            "request": {
                "method": "PUT",
                "url": "Encounter/smart-Encounter-974"
            }
        },
        {
            "resource": {
                "resourceType": "Encounter",
                "id": "smart-Encounter-975",
                "text": {
                    "div": "<div>2012-03-20: ambulatory encounter</div>",
                    "status": "generated"
                },
                "status": "finished",
                "class": "ambulatory",
                "patient": {
                    "reference": "Patient/smart-7777701"
                },
                "period": {
                    "start": "2012-03-20",
                    "end": "2012-03-20"
                },
                "meta": {
                    "tag": [
                        {
                            "system": "https://smarthealthit.org/tags",
                            "code": "smart-8-2017"
                        }
                    ]
                }
            },
            "request": {
                "method": "PUT",
                "url": "Encounter/smart-Encounter-975"
            }
        },
        {
            "resource": {
                "resourceType": "Encounter",
                "id": "smart-Encounter-976",
                "text": {
                    "div": "<div>2012-04-10: ambulatory encounter</div>",
                    "status": "generated"
                },
                "status": "finished",
                "class": "ambulatory",
                "patient": {
                    "reference": "Patient/smart-7777701"
                },
                "period": {
                    "start": "2012-04-10",
                    "end": "2012-04-10"
                },
                "meta": {
                    "tag": [
                        {
                            "system": "https://smarthealthit.org/tags",
                            "code": "smart-8-2017"
                        }
                    ]
                }
            },
            "request": {
                "method": "PUT",
                "url": "Encounter/smart-Encounter-976"
            }
        },
        {
            "resource": {
                "resourceType": "Encounter",
                "id": "smart-Encounter-977",
                "text": {
                    "div": "<div>2012-05-10: ambulatory encounter</div>",
                    "status": "generated"
                },
                "status": "finished",
                "class": "ambulatory",
                "patient": {
                    "reference": "Patient/smart-7777701"
                },
                "period": {
                    "start": "2012-05-10",
                    "end": "2012-05-10"
                },
                "meta": {
                    "tag": [
                        {
                            "system": "https://smarthealthit.org/tags",
                            "code": "smart-8-2017"
                        }
                    ]
                }
            },
            "request": {
                "method": "PUT",
                "url": "Encounter/smart-Encounter-977"
            }
        },
        {
            "resource": {
                "resourceType": "Encounter",
                "id": "smart-Encounter-978",
                "text": {
                    "div": "<div>2012-05-16: ambulatory encounter</div>",
                    "status": "generated"
                },
                "status": "finished",
                "class": "ambulatory",
                "patient": {
                    "reference": "Patient/smart-7777701"
                },
                "period": {
                    "start": "2012-05-16",
                    "end": "2012-05-16"
                },
                "meta": {
                    "tag": [
                        {
                            "system": "https://smarthealthit.org/tags",
                            "code": "smart-8-2017"
                        }
                    ]
                }
            },
            "request": {
                "method": "PUT",
                "url": "Encounter/smart-Encounter-978"
            }
        },
        {
            "resource": {
                "resourceType": "Encounter",
                "id": "smart-Encounter-979",
                "text": {
                    "div": "<div>2012-07-04: ambulatory encounter</div>",
                    "status": "generated"
                },
                "status": "finished",
                "class": "ambulatory",
                "patient": {
                    "reference": "Patient/smart-7777701"
                },
                "period": {
                    "start": "2012-07-04",
                    "end": "2012-07-04"
                },
                "meta": {
                    "tag": [
                        {
                            "system": "https://smarthealthit.org/tags",
                            "code": "smart-8-2017"
                        }
                    ]
                }
            },
            "request": {
                "method": "PUT",
                "url": "Encounter/smart-Encounter-979"
            }
        },
        {
            "resource": {
                "resourceType": "Encounter",
                "id": "smart-Encounter-980",
                "text": {
                    "div": "<div>2012-08-22: ambulatory encounter</div>",
                    "status": "generated"
                },
                "status": "finished",
                "class": "ambulatory",
                "patient": {
                    "reference": "Patient/smart-7777701"
                },
                "period": {
                    "start": "2012-08-22",
                    "end": "2012-08-22"
                },
                "meta": {
                    "tag": [
                        {
                            "system": "https://smarthealthit.org/tags",
                            "code": "smart-8-2017"
                        }
                    ]
                }
            },
            "request": {
                "method": "PUT",
                "url": "Encounter/smart-Encounter-980"
            }
        },
        {
            "resource": {
                "resourceType": "Encounter",
                "id": "smart-Encounter-981",
                "text": {
                    "div": "<div>2012-09-06: ambulatory encounter</div>",
                    "status": "generated"
                },
                "status": "finished",
                "class": "ambulatory",
                "patient": {
                    "reference": "Patient/smart-7777701"
                },
                "period": {
                    "start": "2012-09-06",
                    "end": "2012-09-06"
                },
                "meta": {
                    "tag": [
                        {
                            "system": "https://smarthealthit.org/tags",
                            "code": "smart-8-2017"
                        }
                    ]
                }
            },
            "request": {
                "method": "PUT",
                "url": "Encounter/smart-Encounter-981"
            }
        },
        {
            "resource": {
                "resourceType": "Encounter",
                "id": "smart-Encounter-982",
                "text": {
                    "div": "<div>2012-10-22: ambulatory encounter</div>",
                    "status": "generated"
                },
                "status": "finished",
                "class": "ambulatory",
                "patient": {
                    "reference": "Patient/smart-7777701"
                },
                "period": {
                    "start": "2012-10-22",
                    "end": "2012-10-22"
                },
                "meta": {
                    "tag": [
                        {
                            "system": "https://smarthealthit.org/tags",
                            "code": "smart-8-2017"
                        }
                    ]
                }
            },
            "request": {
                "method": "PUT",
                "url": "Encounter/smart-Encounter-982"
            }
        },
        {
            "resource": {
                "resourceType": "Encounter",
                "id": "smart-Encounter-983",
                "text": {
                    "div": "<div>2013-01-27: ambulatory encounter</div>",
                    "status": "generated"
                },
                "status": "finished",
                "class": "ambulatory",
                "patient": {
                    "reference": "Patient/smart-7777701"
                },
                "period": {
                    "start": "2013-01-27",
                    "end": "2013-01-27"
                },
                "meta": {
                    "tag": [
                        {
                            "system": "https://smarthealthit.org/tags",
                            "code": "smart-8-2017"
                        }
                    ]
                }
            },
            "request": {
                "method": "PUT",
                "url": "Encounter/smart-Encounter-983"
            }
        },
        {
            "resource": {
                "resourceType": "Observation",
                "id": "smart-Observation-967-weight",
                "text": {
                    "div": "<div>2011-09-16: weight = 0.977 kg</div>",
                    "status": "generated"
                },
                "category": {
                    "coding": [
                        {
                            "system": "http://hl7.org/fhir/observation-category",
                            "code": "vital-signs",
                            "display": "Vital Signs"
                        }
                    ],
                    "text": "Vital Signs"
                },
                "code": {
                    "coding": [
                        {
                            "system": "http://loinc.org",
                            "code": "3141-9",
                            "display": "weight"
                        }
                    ],
                    "text": "weight"
                },
                "valueQuantity": {
                    "value": 0.977,
                    "system": "http://unitsofmeasure.org",
                    "code": "kg"
                },
                "status": "final",
                "subject": {
                    "reference": "Patient/smart-7777701"
                },
                "encounter": {
                    "reference": "Encounter/smart-Encounter-967"
                },
                "meta": {
                    "tag": [
                        {
                            "system": "https://smarthealthit.org/tags",
                            "code": "smart-8-2017"
                        }
                    ]
                }
            },
            "request": {
                "method": "PUT",
                "url": "Observation/smart-Observation-967-weight"
            }
        },
        {
            "resource": {
                "resourceType": "Observation",
                "id": "smart-Observation-968-height",
                "text": {
                    "div": "<div>2011-11-22: height = 45.0 cm</div>",
                    "status": "generated"
                },
                "category": {
                    "coding": [
                        {
                            "system": "http://hl7.org/fhir/observation-category",
                            "code": "vital-signs",
                            "display": "Vital Signs"
                        }
                    ],
                    "text": "Vital Signs"
                },
                "code": {
                    "coding": [
                        {
                            "system": "http://loinc.org",
                            "code": "8302-2",
                            "display": "height"
                        }
                    ],
                    "text": "height"
                },
                "valueQuantity": {
                    "value": 45,
                    "system": "http://unitsofmeasure.org",
                    "code": "cm"
                },
                "status": "final",
                "subject": {
                    "reference": "Patient/smart-7777701"
                },
                "encounter": {
                    "reference": "Encounter/smart-Encounter-968"
                },
                "meta": {
                    "tag": [
                        {
                            "system": "https://smarthealthit.org/tags",
                            "code": "smart-8-2017"
                        }
                    ]
                }
            },
            "request": {
                "method": "PUT",
                "url": "Observation/smart-Observation-968-height"
            }
        },
        {
            "resource": {
                "resourceType": "Observation",
                "id": "smart-Observation-968-weight",
                "text": {
                    "div": "<div>2011-11-22: weight = 2.382 kg</div>",
                    "status": "generated"
                },
                "category": {
                    "coding": [
                        {
                            "system": "http://hl7.org/fhir/observation-category",
                            "code": "vital-signs",
                            "display": "Vital Signs"
                        }
                    ],
                    "text": "Vital Signs"
                },
                "code": {
                    "coding": [
                        {
                            "system": "http://loinc.org",
                            "code": "3141-9",
                            "display": "weight"
                        }
                    ],
                    "text": "weight"
                },
                "valueQuantity": {
                    "value": 2.382,
                    "system": "http://unitsofmeasure.org",
                    "code": "kg"
                },
                "status": "final",
                "subject": {
                    "reference": "Patient/smart-7777701"
                },
                "encounter": {
                    "reference": "Encounter/smart-Encounter-968"
                },
                "meta": {
                    "tag": [
                        {
                            "system": "https://smarthealthit.org/tags",
                            "code": "smart-8-2017"
                        }
                    ]
                }
            },
            "request": {
                "method": "PUT",
                "url": "Observation/smart-Observation-968-weight"
            }
        },
        {
            "resource": {
                "resourceType": "Observation",
                "id": "smart-Observation-969-height",
                "text": {
                    "div": "<div>2011-12-01: height = 46.2 cm</div>",
                    "status": "generated"
                },
                "category": {
                    "coding": [
                        {
                            "system": "http://hl7.org/fhir/observation-category",
                            "code": "vital-signs",
                            "display": "Vital Signs"
                        }
                    ],
                    "text": "Vital Signs"
                },
                "code": {
                    "coding": [
                        {
                            "system": "http://loinc.org",
                            "code": "8302-2",
                            "display": "height"
                        }
                    ],
                    "text": "height"
                },
                "valueQuantity": {
                    "value": 46.2,
                    "system": "http://unitsofmeasure.org",
                    "code": "cm"
                },
                "status": "final",
                "subject": {
                    "reference": "Patient/smart-7777701"
                },
                "encounter": {
                    "reference": "Encounter/smart-Encounter-969"
                },
                "meta": {
                    "tag": [
                        {
                            "system": "https://smarthealthit.org/tags",
                            "code": "smart-8-2017"
                        }
                    ]
                }
            },
            "request": {
                "method": "PUT",
                "url": "Observation/smart-Observation-969-height"
            }
        },
        {
            "resource": {
                "resourceType": "Observation",
                "id": "smart-Observation-969-weight",
                "text": {
                    "div": "<div>2011-12-01: weight = 2.636 kg</div>",
                    "status": "generated"
                },
                "category": {
                    "coding": [
                        {
                            "system": "http://hl7.org/fhir/observation-category",
                            "code": "vital-signs",
                            "display": "Vital Signs"
                        }
                    ],
                    "text": "Vital Signs"
                },
                "code": {
                    "coding": [
                        {
                            "system": "http://loinc.org",
                            "code": "3141-9",
                            "display": "weight"
                        }
                    ],
                    "text": "weight"
                },
                "valueQuantity": {
                    "value": 2.636,
                    "system": "http://unitsofmeasure.org",
                    "code": "kg"
                },
                "status": "final",
                "subject": {
                    "reference": "Patient/smart-7777701"
                },
                "encounter": {
                    "reference": "Encounter/smart-Encounter-969"
                },
                "meta": {
                    "tag": [
                        {
                            "system": "https://smarthealthit.org/tags",
                            "code": "smart-8-2017"
                        }
                    ]
                }
            },
            "request": {
                "method": "PUT",
                "url": "Observation/smart-Observation-969-weight"
            }
        },
        {
            "resource": {
                "resourceType": "Observation",
                "id": "smart-Observation-970-height",
                "text": {
                    "div": "<div>2011-12-16: height = 48.5 cm</div>",
                    "status": "generated"
                },
                "category": {
                    "coding": [
                        {
                            "system": "http://hl7.org/fhir/observation-category",
                            "code": "vital-signs",
                            "display": "Vital Signs"
                        }
                    ],
                    "text": "Vital Signs"
                },
                "code": {
                    "coding": [
                        {
                            "system": "http://loinc.org",
                            "code": "8302-2",
                            "display": "height"
                        }
                    ],
                    "text": "height"
                },
                "valueQuantity": {
                    "value": 48.5,
                    "system": "http://unitsofmeasure.org",
                    "code": "cm"
                },
                "status": "final",
                "subject": {
                    "reference": "Patient/smart-7777701"
                },
                "encounter": {
                    "reference": "Encounter/smart-Encounter-970"
                },
                "meta": {
                    "tag": [
                        {
                            "system": "https://smarthealthit.org/tags",
                            "code": "smart-8-2017"
                        }
                    ]
                }
            },
            "request": {
                "method": "PUT",
                "url": "Observation/smart-Observation-970-height"
            }
        },
        {
            "resource": {
                "resourceType": "Observation",
                "id": "smart-Observation-970-weight",
                "text": {
                    "div": "<div>2011-12-16: weight = 3.0 kg</div>",
                    "status": "generated"
                },
                "category": {
                    "coding": [
                        {
                            "system": "http://hl7.org/fhir/observation-category",
                            "code": "vital-signs",
                            "display": "Vital Signs"
                        }
                    ],
                    "text": "Vital Signs"
                },
                "code": {
                    "coding": [
                        {
                            "system": "http://loinc.org",
                            "code": "3141-9",
                            "display": "weight"
                        }
                    ],
                    "text": "weight"
                },
                "valueQuantity": {
                    "value": 3,
                    "system": "http://unitsofmeasure.org",
                    "code": "kg"
                },
                "status": "final",
                "subject": {
                    "reference": "Patient/smart-7777701"
                },
                "encounter": {
                    "reference": "Encounter/smart-Encounter-970"
                },
                "meta": {
                    "tag": [
                        {
                            "system": "https://smarthealthit.org/tags",
                            "code": "smart-8-2017"
                        }
                    ]
                }
            },
            "request": {
                "method": "PUT",
                "url": "Observation/smart-Observation-970-weight"
            }
        },
        {
            "resource": {
                "resourceType": "Observation",
                "id": "smart-Observation-971-weight",
                "text": {
                    "div": "<div>2012-01-10: weight = 4.1 kg</div>",
                    "status": "generated"
                },
                "category": {
                    "coding": [
                        {
                            "system": "http://hl7.org/fhir/observation-category",
                            "code": "vital-signs",
                            "display": "Vital Signs"
                        }
                    ],
                    "text": "Vital Signs"
                },
                "code": {
                    "coding": [
                        {
                            "system": "http://loinc.org",
                            "code": "3141-9",
                            "display": "weight"
                        }
                    ],
                    "text": "weight"
                },
                "valueQuantity": {
                    "value": 4.1,
                    "system": "http://unitsofmeasure.org",
                    "code": "kg"
                },
                "status": "final",
                "subject": {
                    "reference": "Patient/smart-7777701"
                },
                "encounter": {
                    "reference": "Encounter/smart-Encounter-971"
                },
                "meta": {
                    "tag": [
                        {
                            "system": "https://smarthealthit.org/tags",
                            "code": "smart-8-2017"
                        }
                    ]
                }
            },
            "request": {
                "method": "PUT",
                "url": "Observation/smart-Observation-971-weight"
            }
        },
        {
            "resource": {
                "resourceType": "Observation",
                "id": "smart-Observation-972-weight",
                "text": {
                    "div": "<div>2012-02-03: weight = 4.6 kg</div>",
                    "status": "generated"
                },
                "category": {
                    "coding": [
                        {
                            "system": "http://hl7.org/fhir/observation-category",
                            "code": "vital-signs",
                            "display": "Vital Signs"
                        }
                    ],
                    "text": "Vital Signs"
                },
                "code": {
                    "coding": [
                        {
                            "system": "http://loinc.org",
                            "code": "3141-9",
                            "display": "weight"
                        }
                    ],
                    "text": "weight"
                },
                "valueQuantity": {
                    "value": 4.6,
                    "system": "http://unitsofmeasure.org",
                    "code": "kg"
                },
                "status": "final",
                "subject": {
                    "reference": "Patient/smart-7777701"
                },
                "encounter": {
                    "reference": "Encounter/smart-Encounter-972"
                },
                "meta": {
                    "tag": [
                        {
                            "system": "https://smarthealthit.org/tags",
                            "code": "smart-8-2017"
                        }
                    ]
                }
            },
            "request": {
                "method": "PUT",
                "url": "Observation/smart-Observation-972-weight"
            }
        },
        {
            "resource": {
                "resourceType": "Observation",
                "id": "smart-Observation-973-weight",
                "text": {
                    "div": "<div>2012-02-09: weight = 4.7 kg</div>",
                    "status": "generated"
                },
                "category": {
                    "coding": [
                        {
                            "system": "http://hl7.org/fhir/observation-category",
                            "code": "vital-signs",
                            "display": "Vital Signs"
                        }
                    ],
                    "text": "Vital Signs"
                },
                "code": {
                    "coding": [
                        {
                            "system": "http://loinc.org",
                            "code": "3141-9",
                            "display": "weight"
                        }
                    ],
                    "text": "weight"
                },
                "valueQuantity": {
                    "value": 4.7,
                    "system": "http://unitsofmeasure.org",
                    "code": "kg"
                },
                "status": "final",
                "subject": {
                    "reference": "Patient/smart-7777701"
                },
                "encounter": {
                    "reference": "Encounter/smart-Encounter-973"
                },
                "meta": {
                    "tag": [
                        {
                            "system": "https://smarthealthit.org/tags",
                            "code": "smart-8-2017"
                        }
                    ]
                }
            },
            "request": {
                "method": "PUT",
                "url": "Observation/smart-Observation-973-weight"
            }
        },
        {
            "resource": {
                "resourceType": "Observation",
                "id": "smart-Observation-974-height",
                "text": {
                    "div": "<div>2012-03-10: height = 58.5 cm</div>",
                    "status": "generated"
                },
                "category": {
                    "coding": [
                        {
                            "system": "http://hl7.org/fhir/observation-category",
                            "code": "vital-signs",
                            "display": "Vital Signs"
                        }
                    ],
                    "text": "Vital Signs"
                },
                "code": {
                    "coding": [
                        {
                            "system": "http://loinc.org",
                            "code": "8302-2",
                            "display": "height"
                        }
                    ],
                    "text": "height"
                },
                "valueQuantity": {
                    "value": 58.5,
                    "system": "http://unitsofmeasure.org",
                    "code": "cm"
                },
                "status": "final",
                "subject": {
                    "reference": "Patient/smart-7777701"
                },
                "encounter": {
                    "reference": "Encounter/smart-Encounter-974"
                },
                "meta": {
                    "tag": [
                        {
                            "system": "https://smarthealthit.org/tags",
                            "code": "smart-8-2017"
                        }
                    ]
                }
            },
            "request": {
                "method": "PUT",
                "url": "Observation/smart-Observation-974-height"
            }
        },
        {
            "resource": {
                "resourceType": "Observation",
                "id": "smart-Observation-974-weight",
                "text": {
                    "div": "<div>2012-03-10: weight = 5.4 kg</div>",
                    "status": "generated"
                },
                "category": {
                    "coding": [
                        {
                            "system": "http://hl7.org/fhir/observation-category",
                            "code": "vital-signs",
                            "display": "Vital Signs"
                        }
                    ],
                    "text": "Vital Signs"
                },
                "code": {
                    "coding": [
                        {
                            "system": "http://loinc.org",
                            "code": "3141-9",
                            "display": "weight"
                        }
                    ],
                    "text": "weight"
                },
                "valueQuantity": {
                    "value": 5.4,
                    "system": "http://unitsofmeasure.org",
                    "code": "kg"
                },
                "status": "final",
                "subject": {
                    "reference": "Patient/smart-7777701"
                },
                "encounter": {
                    "reference": "Encounter/smart-Encounter-974"
                },
                "meta": {
                    "tag": [
                        {
                            "system": "https://smarthealthit.org/tags",
                            "code": "smart-8-2017"
                        }
                    ]
                }
            },
            "request": {
                "method": "PUT",
                "url": "Observation/smart-Observation-974-weight"
            }
        },
        {
            "resource": {
                "resourceType": "Observation",
                "id": "smart-Observation-975-height",
                "text": {
                    "div": "<div>2012-03-20: height = 58.7 cm</div>",
                    "status": "generated"
                },
                "category": {
                    "coding": [
                        {
                            "system": "http://hl7.org/fhir/observation-category",
                            "code": "vital-signs",
                            "display": "Vital Signs"
                        }
                    ],
                    "text": "Vital Signs"
                },
                "code": {
                    "coding": [
                        {
                            "system": "http://loinc.org",
                            "code": "8302-2",
                            "display": "height"
                        }
                    ],
                    "text": "height"
                },
                "valueQuantity": {
                    "value": 58.7,
                    "system": "http://unitsofmeasure.org",
                    "code": "cm"
                },
                "status": "final",
                "subject": {
                    "reference": "Patient/smart-7777701"
                },
                "encounter": {
                    "reference": "Encounter/smart-Encounter-975"
                },
                "meta": {
                    "tag": [
                        {
                            "system": "https://smarthealthit.org/tags",
                            "code": "smart-8-2017"
                        }
                    ]
                }
            },
            "request": {
                "method": "PUT",
                "url": "Observation/smart-Observation-975-height"
            }
        },
        {
            "resource": {
                "resourceType": "Observation",
                "id": "smart-Observation-975-weight",
                "text": {
                    "div": "<div>2012-03-20: weight = 5.5 kg</div>",
                    "status": "generated"
                },
                "category": {
                    "coding": [
                        {
                            "system": "http://hl7.org/fhir/observation-category",
                            "code": "vital-signs",
                            "display": "Vital Signs"
                        }
                    ],
                    "text": "Vital Signs"
                },
                "code": {
                    "coding": [
                        {
                            "system": "http://loinc.org",
                            "code": "3141-9",
                            "display": "weight"
                        }
                    ],
                    "text": "weight"
                },
                "valueQuantity": {
                    "value": 5.5,
                    "system": "http://unitsofmeasure.org",
                    "code": "kg"
                },
                "status": "final",
                "subject": {
                    "reference": "Patient/smart-7777701"
                },
                "encounter": {
                    "reference": "Encounter/smart-Encounter-975"
                },
                "meta": {
                    "tag": [
                        {
                            "system": "https://smarthealthit.org/tags",
                            "code": "smart-8-2017"
                        }
                    ]
                }
            },
            "request": {
                "method": "PUT",
                "url": "Observation/smart-Observation-975-weight"
            }
        },
        {
            "resource": {
                "resourceType": "Observation",
                "id": "smart-Observation-976-height",
                "text": {
                    "div": "<div>2012-04-10: height = 61.7 cm</div>",
                    "status": "generated"
                },
                "category": {
                    "coding": [
                        {
                            "system": "http://hl7.org/fhir/observation-category",
                            "code": "vital-signs",
                            "display": "Vital Signs"
                        }
                    ],
                    "text": "Vital Signs"
                },
                "code": {
                    "coding": [
                        {
                            "system": "http://loinc.org",
                            "code": "8302-2",
                            "display": "height"
                        }
                    ],
                    "text": "height"
                },
                "valueQuantity": {
                    "value": 61.7,
                    "system": "http://unitsofmeasure.org",
                    "code": "cm"
                },
                "status": "final",
                "subject": {
                    "reference": "Patient/smart-7777701"
                },
                "encounter": {
                    "reference": "Encounter/smart-Encounter-976"
                },
                "meta": {
                    "tag": [
                        {
                            "system": "https://smarthealthit.org/tags",
                            "code": "smart-8-2017"
                        }
                    ]
                }
            },
            "request": {
                "method": "PUT",
                "url": "Observation/smart-Observation-976-height"
            }
        },
        {
            "resource": {
                "resourceType": "Observation",
                "id": "smart-Observation-976-weight",
                "text": {
                    "div": "<div>2012-04-10: weight = 5.9 kg</div>",
                    "status": "generated"
                },
                "category": {
                    "coding": [
                        {
                            "system": "http://hl7.org/fhir/observation-category",
                            "code": "vital-signs",
                            "display": "Vital Signs"
                        }
                    ],
                    "text": "Vital Signs"
                },
                "code": {
                    "coding": [
                        {
                            "system": "http://loinc.org",
                            "code": "3141-9",
                            "display": "weight"
                        }
                    ],
                    "text": "weight"
                },
                "valueQuantity": {
                    "value": 5.9,
                    "system": "http://unitsofmeasure.org",
                    "code": "kg"
                },
                "status": "final",
                "subject": {
                    "reference": "Patient/smart-7777701"
                },
                "encounter": {
                    "reference": "Encounter/smart-Encounter-976"
                },
                "meta": {
                    "tag": [
                        {
                            "system": "https://smarthealthit.org/tags",
                            "code": "smart-8-2017"
                        }
                    ]
                }
            },
            "request": {
                "method": "PUT",
                "url": "Observation/smart-Observation-976-weight"
            }
        },
        {
            "resource": {
                "resourceType": "Observation",
                "id": "smart-Observation-977-height",
                "text": {
                    "div": "<div>2012-05-10: height = 62.8 cm</div>",
                    "status": "generated"
                },
                "category": {
                    "coding": [
                        {
                            "system": "http://hl7.org/fhir/observation-category",
                            "code": "vital-signs",
                            "display": "Vital Signs"
                        }
                    ],
                    "text": "Vital Signs"
                },
                "code": {
                    "coding": [
                        {
                            "system": "http://loinc.org",
                            "code": "8302-2",
                            "display": "height"
                        }
                    ],
                    "text": "height"
                },
                "valueQuantity": {
                    "value": 62.8,
                    "system": "http://unitsofmeasure.org",
                    "code": "cm"
                },
                "status": "final",
                "subject": {
                    "reference": "Patient/smart-7777701"
                },
                "encounter": {
                    "reference": "Encounter/smart-Encounter-977"
                },
                "meta": {
                    "tag": [
                        {
                            "system": "https://smarthealthit.org/tags",
                            "code": "smart-8-2017"
                        }
                    ]
                }
            },
            "request": {
                "method": "PUT",
                "url": "Observation/smart-Observation-977-height"
            }
        },
        {
            "resource": {
                "resourceType": "Observation",
                "id": "smart-Observation-977-weight",
                "text": {
                    "div": "<div>2012-05-10: weight = 6.4 kg</div>",
                    "status": "generated"
                },
                "category": {
                    "coding": [
                        {
                            "system": "http://hl7.org/fhir/observation-category",
                            "code": "vital-signs",
                            "display": "Vital Signs"
                        }
                    ],
                    "text": "Vital Signs"
                },
                "code": {
                    "coding": [
                        {
                            "system": "http://loinc.org",
                            "code": "3141-9",
                            "display": "weight"
                        }
                    ],
                    "text": "weight"
                },
                "valueQuantity": {
                    "value": 6.4,
                    "system": "http://unitsofmeasure.org",
                    "code": "kg"
                },
                "status": "final",
                "subject": {
                    "reference": "Patient/smart-7777701"
                },
                "encounter": {
                    "reference": "Encounter/smart-Encounter-977"
                },
                "meta": {
                    "tag": [
                        {
                            "system": "https://smarthealthit.org/tags",
                            "code": "smart-8-2017"
                        }
                    ]
                }
            },
            "request": {
                "method": "PUT",
                "url": "Observation/smart-Observation-977-weight"
            }
        },
        {
            "resource": {
                "resourceType": "Observation",
                "id": "smart-Observation-978-height",
                "text": {
                    "div": "<div>2012-05-16: height = 64.2 cm</div>",
                    "status": "generated"
                },
                "category": {
                    "coding": [
                        {
                            "system": "http://hl7.org/fhir/observation-category",
                            "code": "vital-signs",
                            "display": "Vital Signs"
                        }
                    ],
                    "text": "Vital Signs"
                },
                "code": {
                    "coding": [
                        {
                            "system": "http://loinc.org",
                            "code": "8302-2",
                            "display": "height"
                        }
                    ],
                    "text": "height"
                },
                "valueQuantity": {
                    "value": 64.2,
                    "system": "http://unitsofmeasure.org",
                    "code": "cm"
                },
                "status": "final",
                "subject": {
                    "reference": "Patient/smart-7777701"
                },
                "encounter": {
                    "reference": "Encounter/smart-Encounter-978"
                },
                "meta": {
                    "tag": [
                        {
                            "system": "https://smarthealthit.org/tags",
                            "code": "smart-8-2017"
                        }
                    ]
                }
            },
            "request": {
                "method": "PUT",
                "url": "Observation/smart-Observation-978-height"
            }
        },
        {
            "resource": {
                "resourceType": "Observation",
                "id": "smart-Observation-978-weight",
                "text": {
                    "div": "<div>2012-05-16: weight = 6.5 kg</div>",
                    "status": "generated"
                },
                "category": {
                    "coding": [
                        {
                            "system": "http://hl7.org/fhir/observation-category",
                            "code": "vital-signs",
                            "display": "Vital Signs"
                        }
                    ],
                    "text": "Vital Signs"
                },
                "code": {
                    "coding": [
                        {
                            "system": "http://loinc.org",
                            "code": "3141-9",
                            "display": "weight"
                        }
                    ],
                    "text": "weight"
                },
                "valueQuantity": {
                    "value": 6.5,
                    "system": "http://unitsofmeasure.org",
                    "code": "kg"
                },
                "status": "final",
                "subject": {
                    "reference": "Patient/smart-7777701"
                },
                "encounter": {
                    "reference": "Encounter/smart-Encounter-978"
                },
                "meta": {
                    "tag": [
                        {
                            "system": "https://smarthealthit.org/tags",
                            "code": "smart-8-2017"
                        }
                    ]
                }
            },
            "request": {
                "method": "PUT",
                "url": "Observation/smart-Observation-978-weight"
            }
        },
        {
            "resource": {
                "resourceType": "Observation",
                "id": "smart-Observation-979-height",
                "text": {
                    "div": "<div>2012-07-04: height = 66.0 cm</div>",
                    "status": "generated"
                },
                "category": {
                    "coding": [
                        {
                            "system": "http://hl7.org/fhir/observation-category",
                            "code": "vital-signs",
                            "display": "Vital Signs"
                        }
                    ],
                    "text": "Vital Signs"
                },
                "code": {
                    "coding": [
                        {
                            "system": "http://loinc.org",
                            "code": "8302-2",
                            "display": "height"
                        }
                    ],
                    "text": "height"
                },
                "valueQuantity": {
                    "value": 66,
                    "system": "http://unitsofmeasure.org",
                    "code": "cm"
                },
                "status": "final",
                "subject": {
                    "reference": "Patient/smart-7777701"
                },
                "encounter": {
                    "reference": "Encounter/smart-Encounter-979"
                },
                "meta": {
                    "tag": [
                        {
                            "system": "https://smarthealthit.org/tags",
                            "code": "smart-8-2017"
                        }
                    ]
                }
            },
            "request": {
                "method": "PUT",
                "url": "Observation/smart-Observation-979-height"
            }
        },
        {
            "resource": {
                "resourceType": "Observation",
                "id": "smart-Observation-979-weight",
                "text": {
                    "div": "<div>2012-07-04: weight = 7.2 kg</div>",
                    "status": "generated"
                },
                "category": {
                    "coding": [
                        {
                            "system": "http://hl7.org/fhir/observation-category",
                            "code": "vital-signs",
                            "display": "Vital Signs"
                        }
                    ],
                    "text": "Vital Signs"
                },
                "code": {
                    "coding": [
                        {
                            "system": "http://loinc.org",
                            "code": "3141-9",
                            "display": "weight"
                        }
                    ],
                    "text": "weight"
                },
                "valueQuantity": {
                    "value": 7.2,
                    "system": "http://unitsofmeasure.org",
                    "code": "kg"
                },
                "status": "final",
                "subject": {
                    "reference": "Patient/smart-7777701"
                },
                "encounter": {
                    "reference": "Encounter/smart-Encounter-979"
                },
                "meta": {
                    "tag": [
                        {
                            "system": "https://smarthealthit.org/tags",
                            "code": "smart-8-2017"
                        }
                    ]
                }
            },
            "request": {
                "method": "PUT",
                "url": "Observation/smart-Observation-979-weight"
            }
        },
        {
            "resource": {
                "resourceType": "Observation",
                "id": "smart-Observation-980-weight",
                "text": {
                    "div": "<div>2012-08-22: weight = 7.7 kg</div>",
                    "status": "generated"
                },
                "category": {
                    "coding": [
                        {
                            "system": "http://hl7.org/fhir/observation-category",
                            "code": "vital-signs",
                            "display": "Vital Signs"
                        }
                    ],
                    "text": "Vital Signs"
                },
                "code": {
                    "coding": [
                        {
                            "system": "http://loinc.org",
                            "code": "3141-9",
                            "display": "weight"
                        }
                    ],
                    "text": "weight"
                },
                "valueQuantity": {
                    "value": 7.7,
                    "system": "http://unitsofmeasure.org",
                    "code": "kg"
                },
                "status": "final",
                "subject": {
                    "reference": "Patient/smart-7777701"
                },
                "encounter": {
                    "reference": "Encounter/smart-Encounter-980"
                },
                "meta": {
                    "tag": [
                        {
                            "system": "https://smarthealthit.org/tags",
                            "code": "smart-8-2017"
                        }
                    ]
                }
            },
            "request": {
                "method": "PUT",
                "url": "Observation/smart-Observation-980-weight"
            }
        },
        {
            "resource": {
                "resourceType": "Observation",
                "id": "smart-Observation-981-height",
                "text": {
                    "div": "<div>2012-09-06: height = 70.4 cm</div>",
                    "status": "generated"
                },
                "category": {
                    "coding": [
                        {
                            "system": "http://hl7.org/fhir/observation-category",
                            "code": "vital-signs",
                            "display": "Vital Signs"
                        }
                    ],
                    "text": "Vital Signs"
                },
                "code": {
                    "coding": [
                        {
                            "system": "http://loinc.org",
                            "code": "8302-2",
                            "display": "height"
                        }
                    ],
                    "text": "height"
                },
                "valueQuantity": {
                    "value": 70.4,
                    "system": "http://unitsofmeasure.org",
                    "code": "cm"
                },
                "status": "final",
                "subject": {
                    "reference": "Patient/smart-7777701"
                },
                "encounter": {
                    "reference": "Encounter/smart-Encounter-981"
                },
                "meta": {
                    "tag": [
                        {
                            "system": "https://smarthealthit.org/tags",
                            "code": "smart-8-2017"
                        }
                    ]
                }
            },
            "request": {
                "method": "PUT",
                "url": "Observation/smart-Observation-981-height"
            }
        },
        {
            "resource": {
                "resourceType": "Observation",
                "id": "smart-Observation-981-weight",
                "text": {
                    "div": "<div>2012-09-06: weight = 7.7 kg</div>",
                    "status": "generated"
                },
                "category": {
                    "coding": [
                        {
                            "system": "http://hl7.org/fhir/observation-category",
                            "code": "vital-signs",
                            "display": "Vital Signs"
                        }
                    ],
                    "text": "Vital Signs"
                },
                "code": {
                    "coding": [
                        {
                            "system": "http://loinc.org",
                            "code": "3141-9",
                            "display": "weight"
                        }
                    ],
                    "text": "weight"
                },
                "valueQuantity": {
                    "value": 7.7,
                    "system": "http://unitsofmeasure.org",
                    "code": "kg"
                },
                "status": "final",
                "subject": {
                    "reference": "Patient/smart-7777701"
                },
                "encounter": {
                    "reference": "Encounter/smart-Encounter-981"
                },
                "meta": {
                    "tag": [
                        {
                            "system": "https://smarthealthit.org/tags",
                            "code": "smart-8-2017"
                        }
                    ]
                }
            },
            "request": {
                "method": "PUT",
                "url": "Observation/smart-Observation-981-weight"
            }
        },
        {
            "resource": {
                "resourceType": "Observation",
                "id": "smart-Observation-982-height",
                "text": {
                    "div": "<div>2012-10-22: height = 71.2 cm</div>",
                    "status": "generated"
                },
                "category": {
                    "coding": [
                        {
                            "system": "http://hl7.org/fhir/observation-category",
                            "code": "vital-signs",
                            "display": "Vital Signs"
                        }
                    ],
                    "text": "Vital Signs"
                },
                "code": {
                    "coding": [
                        {
                            "system": "http://loinc.org",
                            "code": "8302-2",
                            "display": "height"
                        }
                    ],
                    "text": "height"
                },
                "valueQuantity": {
                    "value": 71.2,
                    "system": "http://unitsofmeasure.org",
                    "code": "cm"
                },
                "status": "final",
                "subject": {
                    "reference": "Patient/smart-7777701"
                },
                "encounter": {
                    "reference": "Encounter/smart-Encounter-982"
                },
                "meta": {
                    "tag": [
                        {
                            "system": "https://smarthealthit.org/tags",
                            "code": "smart-8-2017"
                        }
                    ]
                }
            },
            "request": {
                "method": "PUT",
                "url": "Observation/smart-Observation-982-height"
            }
        },
        {
            "resource": {
                "resourceType": "Observation",
                "id": "smart-Observation-982-weight",
                "text": {
                    "div": "<div>2012-10-22: weight = 8.0 kg</div>",
                    "status": "generated"
                },
                "category": {
                    "coding": [
                        {
                            "system": "http://hl7.org/fhir/observation-category",
                            "code": "vital-signs",
                            "display": "Vital Signs"
                        }
                    ],
                    "text": "Vital Signs"
                },
                "code": {
                    "coding": [
                        {
                            "system": "http://loinc.org",
                            "code": "3141-9",
                            "display": "weight"
                        }
                    ],
                    "text": "weight"
                },
                "valueQuantity": {
                    "value": 8,
                    "system": "http://unitsofmeasure.org",
                    "code": "kg"
                },
                "status": "final",
                "subject": {
                    "reference": "Patient/smart-7777701"
                },
                "encounter": {
                    "reference": "Encounter/smart-Encounter-982"
                },
                "meta": {
                    "tag": [
                        {
                            "system": "https://smarthealthit.org/tags",
                            "code": "smart-8-2017"
                        }
                    ]
                }
            },
            "request": {
                "method": "PUT",
                "url": "Observation/smart-Observation-982-weight"
            }
        },
        {
            "resource": {
                "resourceType": "Observation",
                "id": "smart-Observation-983-height",
                "text": {
                    "div": "<div>2013-01-27: height = 73.8 cm</div>",
                    "status": "generated"
                },
                "category": {
                    "coding": [
                        {
                            "system": "http://hl7.org/fhir/observation-category",
                            "code": "vital-signs",
                            "display": "Vital Signs"
                        }
                    ],
                    "text": "Vital Signs"
                },
                "code": {
                    "coding": [
                        {
                            "system": "http://loinc.org",
                            "code": "8302-2",
                            "display": "height"
                        }
                    ],
                    "text": "height"
                },
                "valueQuantity": {
                    "value": 73.8,
                    "system": "http://unitsofmeasure.org",
                    "code": "cm"
                },
                "status": "final",
                "subject": {
                    "reference": "Patient/smart-7777701"
                },
                "encounter": {
                    "reference": "Encounter/smart-Encounter-983"
                },
                "meta": {
                    "tag": [
                        {
                            "system": "https://smarthealthit.org/tags",
                            "code": "smart-8-2017"
                        }
                    ]
                }
            },
            "request": {
                "method": "PUT",
                "url": "Observation/smart-Observation-983-height"
            }
        },
        {
            "resource": {
                "resourceType": "Observation",
                "id": "smart-Observation-983-weight",
                "text": {
                    "div": "<div>2013-01-27: weight = 8.6 kg</div>",
                    "status": "generated"
                },
                "category": {
                    "coding": [
                        {
                            "system": "http://hl7.org/fhir/observation-category",
                            "code": "vital-signs",
                            "display": "Vital Signs"
                        }
                    ],
                    "text": "Vital Signs"
                },
                "code": {
                    "coding": [
                        {
                            "system": "http://loinc.org",
                            "code": "3141-9",
                            "display": "weight"
                        }
                    ],
                    "text": "weight"
                },
                "valueQuantity": {
                    "value": 8.6,
                    "system": "http://unitsofmeasure.org",
                    "code": "kg"
                },
                "status": "final",
                "subject": {
                    "reference": "Patient/smart-7777701"
                },
                "encounter": {
                    "reference": "Encounter/smart-Encounter-983"
                },
                "meta": {
                    "tag": [
                        {
                            "system": "https://smarthealthit.org/tags",
                            "code": "smart-8-2017"
                        }
                    ]
                }
            },
            "request": {
                "method": "PUT",
                "url": "Observation/smart-Observation-983-weight"
            }
        },
        {
            "resource": {
                "resourceType": "FamilyMemberHistory",
                "id": "smart-FamilyMemberHistory-7",
                "extension": [
                    {
                        "url": "http://fhir-registry.smarthealthit.org/StructureDefinition/family-history#height",
                        "valueQuantity": {
                            "value": 182,
                            "system": "http://unitsofmeasure.org",
                            "code": "cm"
                        }
                    }
                ],
                "text": {
                    "div": "<div>Data on patient's Father</div>",
                    "status": "generated"
                },
                "patient": {
                    "reference": "Patient/smart-7777701"
                },
                "relationship": {
                    "coding": [
                        {
                            "system": "http://hl7.org/fhir/v3/RoleCode",
                            "code": "FTH",
                            "display": "father"
                        }
                    ]
                },
                "meta": {
                    "tag": [
                        {
                            "system": "https://smarthealthit.org/tags",
                            "code": "smart-8-2017"
                        }
                    ]
                }
            },
            "request": {
                "method": "PUT",
                "url": "FamilyMemberHistory/smart-FamilyMemberHistory-7"
            }
        },
        {
            "resource": {
                "resourceType": "FamilyMemberHistory",
                "id": "smart-FamilyMemberHistory-8",
                "extension": [
                    {
                        "url": "http://fhir-registry.smarthealthit.org/StructureDefinition/family-history#height",
                        "valueQuantity": {
                            "value": 165.5,
                            "system": "http://unitsofmeasure.org",
                            "code": "cm"
                        }
                    }
                ],
                "text": {
                    "div": "<div>Data on patient's Mother</div>",
                    "status": "generated"
                },
                "patient": {
                    "reference": "Patient/smart-7777701"
                },
                "relationship": {
                    "coding": [
                        {
                            "system": "http://hl7.org/fhir/v3/RoleCode",
                            "code": "MTH",
                            "display": "mother"
                        }
                    ]
                },
                "meta": {
                    "tag": [
                        {
                            "system": "https://smarthealthit.org/tags",
                            "code": "smart-8-2017"
                        }
                    ]
                }
            },
            "request": {
                "method": "PUT",
                "url": "FamilyMemberHistory/smart-FamilyMemberHistory-8"
            }
        },
        {
            "resource": {
                "resourceType": "Observation",
                "id": "smart-Observation-7777701-gestage",
                "text": {
                    "div": "<div>2011-09-16: Gestational age at birth = 28.3 weeks</div>",
                    "status": "generated"
                },
                "category": {
                    "coding": [
                        {
                            "system": "http://hl7.org/fhir/observation-category",
                            "code": "exam",
                            "display": "Exam"
                        }
                    ],
                    "text": "Exam"
                },
                "code": {
                    "coding": [
                        {
                            "system": "http://loinc.org",
                            "code": "18185-9",
                            "display": "Gestational age at birth"
                        }
                    ],
                    "text": "Gestational age at birth"
                },
                "valueQuantity": {
                    "value": 28.3,
                    "system": "http://unitsofmeasure.org",
                    "code": "wk"
                },
                "status": "final",
                "subject": {
                    "reference": "Patient/smart-7777701"
                },
                "meta": {
                    "tag": [
                        {
                            "system": "https://smarthealthit.org/tags",
                            "code": "smart-8-2017"
                        }
                    ]
                }
            },
            "request": {
                "method": "PUT",
                "url": "Observation/smart-Observation-7777701-gestage"
            }
        }
    ]
}