{
    "resourceType": "Bundle",
    "type": "transaction",
    "entry": [
        {
            "resource": {
                "resourceType": "Patient",
                "id": "smart-7777703",
                "text": {
                    "div": "<div><p>Paul Luttrell</p></div>",
                    "status": "generated"
                },
                "identifier": [
                    {
                        "use": "usual",
                        "system": "http://hospital.smarthealthit.org",
                        "value": "7777703"
                    }
                ],
                "name": [
                    {
                        "use": "official",
                        "family": [
                            "Luttrell"
                        ],
                        "given": [
                            "Paul"
                        ]
                    }
                ],
                "gender": "male",
                "birthDate": "2003-08-01",
                "active": true
            },
            "request": {
                "method": "PUT",
                "url": "Patient/smart-7777703"
            }
        },
        {
            "resource": {
                "resourceType": "Encounter",
                "id": "smart-Encounter-997",
                "text": {
                    "div": "<div>2005-08-08: ambulatory encounter</div>",
                    "status": "generated"
                },
                "status": "finished",
                "class": "ambulatory",
                "patient": {
                    "reference": "Patient/smart-7777703"
                },
                "period": {
                    "start": "2005-08-08",
                    "end": "2005-08-08"
                }
            },
            "request": {
                "method": "PUT",
                "url": "Encounter/smart-Encounter-997"
            }
        },
        {
            "resource": {
                "resourceType": "Encounter",
                "id": "smart-Encounter-998",
                "text": {
                    "div": "<div>2006-04-21: ambulatory encounter</div>",
                    "status": "generated"
                },
                "status": "finished",
                "class": "ambulatory",
                "patient": {
                    "reference": "Patient/smart-7777703"
                },
                "period": {
                    "start": "2006-04-21",
                    "end": "2006-04-21"
                }
            },
            "request": {
                "method": "PUT",
                "url": "Encounter/smart-Encounter-998"
            }
        },
        {
            "resource": {
                "resourceType": "Encounter",
                "id": "smart-Encounter-999",
                "text": {
                    "div": "<div>2006-08-08: ambulatory encounter</div>",
                    "status": "generated"
                },
                "status": "finished",
                "class": "ambulatory",
                "patient": {
                    "reference": "Patient/smart-7777703"
                },
                "period": {
                    "start": "2006-08-08",
                    "end": "2006-08-08"
                }
            },
            "request": {
                "method": "PUT",
                "url": "Encounter/smart-Encounter-999"
            }
        },
        {
            "resource": {
                "resourceType": "Encounter",
                "id": "smart-Encounter-1000",
                "text": {
                    "div": "<div>2007-08-08: ambulatory encounter</div>",
                    "status": "generated"
                },
                "status": "finished",
                "class": "ambulatory",
                "patient": {
                    "reference": "Patient/smart-7777703"
                },
                "period": {
                    "start": "2007-08-08",
                    "end": "2007-08-08"
                }
            },
            "request": {
                "method": "PUT",
                "url": "Encounter/smart-Encounter-1000"
            }
        },
        {
            "resource": {
                "resourceType": "Encounter",
                "id": "smart-Encounter-1001",
                "text": {
                    "div": "<div>2008-08-07: ambulatory encounter</div>",
                    "status": "generated"
                },
                "status": "finished",
                "class": "ambulatory",
                "patient": {
                    "reference": "Patient/smart-7777703"
                },
                "period": {
                    "start": "2008-08-07",
                    "end": "2008-08-07"
                }
            },
            "request": {
                "method": "PUT",
                "url": "Encounter/smart-Encounter-1001"
            }
        },
        {
            "resource": {
                "resourceType": "Encounter",
                "id": "smart-Encounter-1002",
                "text": {
                    "div": "<div>2010-02-06: ambulatory encounter</div>",
                    "status": "generated"
                },
                "status": "finished",
                "class": "ambulatory",
                "patient": {
                    "reference": "Patient/smart-7777703"
                },
                "period": {
                    "start": "2010-02-06",
                    "end": "2010-02-06"
                }
            },
            "request": {
                "method": "PUT",
                "url": "Encounter/smart-Encounter-1002"
            }
        },
        {
            "resource": {
                "resourceType": "Encounter",
                "id": "smart-Encounter-1003",
                "text": {
                    "div": "<div>2010-08-07: ambulatory encounter</div>",
                    "status": "generated"
                },
                "status": "finished",
                "class": "ambulatory",
                "patient": {
                    "reference": "Patient/smart-7777703"
                },
                "period": {
                    "start": "2010-08-07",
                    "end": "2010-08-07"
                }
            },
            "request": {
                "method": "PUT",
                "url": "Encounter/smart-Encounter-1003"
            }
        },
        {
            "resource": {
                "resourceType": "Encounter",
                "id": "smart-Encounter-1004",
                "text": {
                    "div": "<div>2011-03-14: ambulatory encounter</div>",
                    "status": "generated"
                },
                "status": "finished",
                "class": "ambulatory",
                "patient": {
                    "reference": "Patient/smart-7777703"
                },
                "period": {
                    "start": "2011-03-14",
                    "end": "2011-03-14"
                }
            },
            "request": {
                "method": "PUT",
                "url": "Encounter/smart-Encounter-1004"
            }
        },
        {
            "resource": {
                "resourceType": "Encounter",
                "id": "smart-Encounter-1005",
                "text": {
                    "div": "<div>2011-08-07: ambulatory encounter</div>",
                    "status": "generated"
                },
                "status": "finished",
                "class": "ambulatory",
                "patient": {
                    "reference": "Patient/smart-7777703"
                },
                "period": {
                    "start": "2011-08-07",
                    "end": "2011-08-07"
                }
            },
            "request": {
                "method": "PUT",
                "url": "Encounter/smart-Encounter-1005"
            }
        },
        {
            "resource": {
                "resourceType": "Encounter",
                "id": "smart-Encounter-1006",
                "text": {
                    "div": "<div>2012-03-13: ambulatory encounter</div>",
                    "status": "generated"
                },
                "status": "finished",
                "class": "ambulatory",
                "patient": {
                    "reference": "Patient/smart-7777703"
                },
                "period": {
                    "start": "2012-03-13",
                    "end": "2012-03-13"
                }
            },
            "request": {
                "method": "PUT",
                "url": "Encounter/smart-Encounter-1006"
            }
        },
        {
            "resource": {
                "resourceType": "Encounter",
                "id": "smart-Encounter-1007",
                "text": {
                    "div": "<div>2012-09-12: ambulatory encounter</div>",
                    "status": "generated"
                },
                "status": "finished",
                "class": "ambulatory",
                "patient": {
                    "reference": "Patient/smart-7777703"
                },
                "period": {
                    "start": "2012-09-12",
                    "end": "2012-09-12"
                }
            },
            "request": {
                "method": "PUT",
                "url": "Encounter/smart-Encounter-1007"
            }
        },
        {
            "resource": {
                "resourceType": "Encounter",
                "id": "smart-Encounter-1008",
                "text": {
                    "div": "<div>2013-02-05: ambulatory encounter</div>",
                    "status": "generated"
                },
                "status": "finished",
                "class": "ambulatory",
                "patient": {
                    "reference": "Patient/smart-7777703"
                },
                "period": {
                    "start": "2013-02-05",
                    "end": "2013-02-05"
                }
            },
            "request": {
                "method": "PUT",
                "url": "Encounter/smart-Encounter-1008"
            }
        },
        {
            "resource": {
                "resourceType": "Observation",
                "id": "smart-Observation-997-height",
                "text": {
                    "div": "<div>2005-08-08: height = 81.8 cm</div>",
                    "status": "generated"
                },
                "category": {
                    "coding": [
                        {
                            "system": "http://hl7.org/fhir/observation-category",
                            "code": "vital-signs",
                            "display": "Vital Signs"
                        }
                    ],
                    "text": "Vital Signs"
                },
                "code": {
                    "coding": [
                        {
                            "system": "http://loinc.org",
                            "code": "8302-2",
                            "display": "height"
                        }
                    ],
                    "text": "height"
                },
                "valueQuantity": {
                    "value": 81.8,
                    "system": "http://unitsofmeasure.org",
                    "code": "cm"
                },
                "status": "final",
                "subject": {
                    "reference": "Patient/smart-7777703"
                },
                "encounter": {
                    "reference": "Encounter/smart-Encounter-997"
                }
            },
            "request": {
                "method": "PUT",
                "url": "Observation/smart-Observation-997-height"
            }
        },
        {
            "resource": {
                "resourceType": "Observation",
                "id": "smart-Observation-997-weight",
                "text": {
                    "div": "<div>2005-08-08: weight = 11.1 kg</div>",
                    "status": "generated"
                },
                "category": {
                    "coding": [
                        {
                            "system": "http://hl7.org/fhir/observation-category",
                            "code": "vital-signs",
                            "display": "Vital Signs"
                        }
                    ],
                    "text": "Vital Signs"
                },
                "code": {
                    "coding": [
                        {
                            "system": "http://loinc.org",
                            "code": "3141-9",
                            "display": "weight"
                        }
                    ],
                    "text": "weight"
                },
                "valueQuantity": {
                    "value": 11.1,
                    "system": "http://unitsofmeasure.org",
                    "code": "kg"
                },
                "status": "final",
                "subject": {
                    "reference": "Patient/smart-7777703"
                },
                "encounter": {
                    "reference": "Encounter/smart-Encounter-997"
                }
            },
            "request": {
                "method": "PUT",
                "url": "Observation/smart-Observation-997-weight"
            }
        },
        {
            "resource": {
                "resourceType": "Observation",
                "id": "smart-Observation-997-bmi",
                "text": {
                    "div": "<div>2005-08-08: bmi = 16.2 kg/m2</div>",
                    "status": "generated"
                },
                "category": {
                    "coding": [
                        {
                            "system": "http://hl7.org/fhir/observation-category",
                            "code": "vital-signs",
                            "display": "Vital Signs"
                        }
                    ],
                    "text": "Vital Signs"
                },
                "code": {
                    "coding": [
                        {
                            "system": "http://loinc.org",
                            "code": "39156-5",
                            "display": "bmi"
                        }
                    ],
                    "text": "bmi"
                },
                "valueQuantity": {
                    "value": 16.2,
                    "system": "http://unitsofmeasure.org",
                    "code": "kg/m2"
                },
                "status": "final",
                "subject": {
                    "reference": "Patient/smart-7777703"
                },
                "encounter": {
                    "reference": "Encounter/smart-Encounter-997"
                }
            },
            "request": {
                "method": "PUT",
                "url": "Observation/smart-Observation-997-bmi"
            }
        },
        {
            "resource": {
                "resourceType": "Observation",
                "id": "smart-Observation-998-height",
                "text": {
                    "div": "<div>2006-04-21: height = 86.4 cm</div>",
                    "status": "generated"
                },
                "category": {
                    "coding": [
                        {
                            "system": "http://hl7.org/fhir/observation-category",
                            "code": "vital-signs",
                            "display": "Vital Signs"
                        }
                    ],
                    "text": "Vital Signs"
                },
                "code": {
                    "coding": [
                        {
                            "system": "http://loinc.org",
                            "code": "8302-2",
                            "display": "height"
                        }
                    ],
                    "text": "height"
                },
                "valueQuantity": {
                    "value": 86.4,
                    "system": "http://unitsofmeasure.org",
                    "code": "cm"
                },
                "status": "final",
                "subject": {
                    "reference": "Patient/smart-7777703"
                },
                "encounter": {
                    "reference": "Encounter/smart-Encounter-998"
                }
            },
            "request": {
                "method": "PUT",
                "url": "Observation/smart-Observation-998-height"
            }
        },
        {
            "resource": {
                "resourceType": "Observation",
                "id": "smart-Observation-998-weight",
                "text": {
                    "div": "<div>2006-04-21: weight = 11.4 kg</div>",
                    "status": "generated"
                },
                "category": {
                    "coding": [
                        {
                            "system": "http://hl7.org/fhir/observation-category",
                            "code": "vital-signs",
                            "display": "Vital Signs"
                        }
                    ],
                    "text": "Vital Signs"
                },
                "code": {
                    "coding": [
                        {
                            "system": "http://loinc.org",
                            "code": "3141-9",
                            "display": "weight"
                        }
                    ],
                    "text": "weight"
                },
                "valueQuantity": {
                    "value": 11.4,
                    "system": "http://unitsofmeasure.org",
                    "code": "kg"
                },
                "status": "final",
                "subject": {
                    "reference": "Patient/smart-7777703"
                },
                "encounter": {
                    "reference": "Encounter/smart-Encounter-998"
                }
            },
            "request": {
                "method": "PUT",
                "url": "Observation/smart-Observation-998-weight"
            }
        },
        {
            "resource": {
                "resourceType": "Observation",
                "id": "smart-Observation-998-bmi",
                "text": {
                    "div": "<div>2006-04-21: bmi = 15.2 kg/m2</div>",
                    "status": "generated"
                },
                "category": {
                    "coding": [
                        {
                            "system": "http://hl7.org/fhir/observation-category",
                            "code": "vital-signs",
                            "display": "Vital Signs"
                        }
                    ],
                    "text": "Vital Signs"
                },
                "code": {
                    "coding": [
                        {
                            "system": "http://loinc.org",
                            "code": "39156-5",
                            "display": "bmi"
                        }
                    ],
                    "text": "bmi"
                },
                "valueQuantity": {
                    "value": 15.2,
                    "system": "http://unitsofmeasure.org",
                    "code": "kg/m2"
                },
                "status": "final",
                "subject": {
                    "reference": "Patient/smart-7777703"
                },
                "encounter": {
                    "reference": "Encounter/smart-Encounter-998"
                }
            },
            "request": {
                "method": "PUT",
                "url": "Observation/smart-Observation-998-bmi"
            }
        },
        {
            "resource": {
                "resourceType": "Observation",
                "id": "smart-Observation-999-height",
                "text": {
                    "div": "<div>2006-08-08: height = 87.6 cm</div>",
                    "status": "generated"
                },
                "category": {
                    "coding": [
                        {
                            "system": "http://hl7.org/fhir/observation-category",
                            "code": "vital-signs",
                            "display": "Vital Signs"
                        }
                    ],
                    "text": "Vital Signs"
                },
                "code": {
                    "coding": [
                        {
                            "system": "http://loinc.org",
                            "code": "8302-2",
                            "display": "height"
                        }
                    ],
                    "text": "height"
                },
                "valueQuantity": {
                    "value": 87.6,
                    "system": "http://unitsofmeasure.org",
                    "code": "cm"
                },
                "status": "final",
                "subject": {
                    "reference": "Patient/smart-7777703"
                },
                "encounter": {
                    "reference": "Encounter/smart-Encounter-999"
                }
            },
            "request": {
                "method": "PUT",
                "url": "Observation/smart-Observation-999-height"
            }
        },
        {
            "resource": {
                "resourceType": "Observation",
                "id": "smart-Observation-999-weight",
                "text": {
                    "div": "<div>2006-08-08: weight = 12.1 kg</div>",
                    "status": "generated"
                },
                "category": {
                    "coding": [
                        {
                            "system": "http://hl7.org/fhir/observation-category",
                            "code": "vital-signs",
                            "display": "Vital Signs"
                        }
                    ],
                    "text": "Vital Signs"
                },
                "code": {
                    "coding": [
                        {
                            "system": "http://loinc.org",
                            "code": "3141-9",
                            "display": "weight"
                        }
                    ],
                    "text": "weight"
                },
                "valueQuantity": {
                    "value": 12.1,
                    "system": "http://unitsofmeasure.org",
                    "code": "kg"
                },
                "status": "final",
                "subject": {
                    "reference": "Patient/smart-7777703"
                },
                "encounter": {
                    "reference": "Encounter/smart-Encounter-999"
                }
            },
            "request": {
                "method": "PUT",
                "url": "Observation/smart-Observation-999-weight"
            }
        },
        {
            "resource": {
                "resourceType": "Observation",
                "id": "smart-Observation-999-bmi",
                "text": {
                    "div": "<div>2006-08-08: bmi = 15.5 kg/m2</div>",
                    "status": "generated"
                },
                "category": {
                    "coding": [
                        {
                            "system": "http://hl7.org/fhir/observation-category",
                            "code": "vital-signs",
                            "display": "Vital Signs"
                        }
                    ],
                    "text": "Vital Signs"
                },
                "code": {
                    "coding": [
                        {
                            "system": "http://loinc.org",
                            "code": "39156-5",
                            "display": "bmi"
                        }
                    ],
                    "text": "bmi"
                },
                "valueQuantity": {
                    "value": 15.5,
                    "system": "http://unitsofmeasure.org",
                    "code": "kg/m2"
                },
                "status": "final",
                "subject": {
                    "reference": "Patient/smart-7777703"
                },
                "encounter": {
                    "reference": "Encounter/smart-Encounter-999"
                }
            },
            "request": {
                "method": "PUT",
                "url": "Observation/smart-Observation-999-bmi"
            }
        },
        {
            "resource": {
                "resourceType": "Observation",
                "id": "smart-Observation-1000-height",
                "text": {
                    "div": "<div>2007-08-08: height = 95.0 cm</div>",
                    "status": "generated"
                },
                "category": {
                    "coding": [
                        {
                            "system": "http://hl7.org/fhir/observation-category",
                            "code": "vital-signs",
                            "display": "Vital Signs"
                        }
                    ],
                    "text": "Vital Signs"
                },
                "code": {
                    "coding": [
                        {
                            "system": "http://loinc.org",
                            "code": "8302-2",
                            "display": "height"
                        }
                    ],
                    "text": "height"
                },
                "valueQuantity": {
                    "value": 95,
                    "system": "http://unitsofmeasure.org",
                    "code": "cm"
                },
                "status": "final",
                "subject": {
                    "reference": "Patient/smart-7777703"
                },
                "encounter": {
                    "reference": "Encounter/smart-Encounter-1000"
                }
            },
            "request": {
                "method": "PUT",
                "url": "Observation/smart-Observation-1000-height"
            }
        },
        {
            "resource": {
                "resourceType": "Observation",
                "id": "smart-Observation-1000-weight",
                "text": {
                    "div": "<div>2007-08-08: weight = 13.7 kg</div>",
                    "status": "generated"
                },
                "category": {
                    "coding": [
                        {
                            "system": "http://hl7.org/fhir/observation-category",
                            "code": "vital-signs",
                            "display": "Vital Signs"
                        }
                    ],
                    "text": "Vital Signs"
                },
                "code": {
                    "coding": [
                        {
                            "system": "http://loinc.org",
                            "code": "3141-9",
                            "display": "weight"
                        }
                    ],
                    "text": "weight"
                },
                "valueQuantity": {
                    "value": 13.7,
                    "system": "http://unitsofmeasure.org",
                    "code": "kg"
                },
                "status": "final",
                "subject": {
                    "reference": "Patient/smart-7777703"
                },
                "encounter": {
                    "reference": "Encounter/smart-Encounter-1000"
                }
            },
            "request": {
                "method": "PUT",
                "url": "Observation/smart-Observation-1000-weight"
            }
        },
        {
            "resource": {
                "resourceType": "Observation",
                "id": "smart-Observation-1000-bmi",
                "text": {
                    "div": "<div>2007-08-08: bmi = 15.0 kg/m2</div>",
                    "status": "generated"
                },
                "category": {
                    "coding": [
                        {
                            "system": "http://hl7.org/fhir/observation-category",
                            "code": "vital-signs",
                            "display": "Vital Signs"
                        }
                    ],
                    "text": "Vital Signs"
                },
                "code": {
                    "coding": [
                        {
                            "system": "http://loinc.org",
                            "code": "39156-5",
                            "display": "bmi"
                        }
                    ],
                    "text": "bmi"
                },
                "valueQuantity": {
                    "value": 15,
                    "system": "http://unitsofmeasure.org",
                    "code": "kg/m2"
                },
                "status": "final",
                "subject": {
                    "reference": "Patient/smart-7777703"
                },
                "encounter": {
                    "reference": "Encounter/smart-Encounter-1000"
                }
            },
            "request": {
                "method": "PUT",
                "url": "Observation/smart-Observation-1000-bmi"
            }
        },
        {
            "resource": {
                "resourceType": "Observation",
                "id": "smart-Observation-1001-height",
                "text": {
                    "div": "<div>2008-08-07: height = 100.2 cm</div>",
                    "status": "generated"
                },
                "category": {
                    "coding": [
                        {
                            "system": "http://hl7.org/fhir/observation-category",
                            "code": "vital-signs",
                            "display": "Vital Signs"
                        }
                    ],
                    "text": "Vital Signs"
                },
                "code": {
                    "coding": [
                        {
                            "system": "http://loinc.org",
                            "code": "8302-2",
                            "display": "height"
                        }
                    ],
                    "text": "height"
                },
                "valueQuantity": {
                    "value": 100.2,
                    "system": "http://unitsofmeasure.org",
                    "code": "cm"
                },
                "status": "final",
                "subject": {
                    "reference": "Patient/smart-7777703"
                },
                "encounter": {
                    "reference": "Encounter/smart-Encounter-1001"
                }
            },
            "request": {
                "method": "PUT",
                "url": "Observation/smart-Observation-1001-height"
            }
        },
        {
            "resource": {
                "resourceType": "Observation",
                "id": "smart-Observation-1001-weight",
                "text": {
                    "div": "<div>2008-08-07: weight = 15.1 kg</div>",
                    "status": "generated"
                },
                "category": {
                    "coding": [
                        {
                            "system": "http://hl7.org/fhir/observation-category",
                            "code": "vital-signs",
                            "display": "Vital Signs"
                        }
                    ],
                    "text": "Vital Signs"
                },
                "code": {
                    "coding": [
                        {
                            "system": "http://loinc.org",
                            "code": "3141-9",
                            "display": "weight"
                        }
                    ],
                    "text": "weight"
                },
                "valueQuantity": {
                    "value": 15.1,
                    "system": "http://unitsofmeasure.org",
                    "code": "kg"
                },
                "status": "final",
                "subject": {
                    "reference": "Patient/smart-7777703"
                },
                "encounter": {
                    "reference": "Encounter/smart-Encounter-1001"
                }
            },
            "request": {
                "method": "PUT",
                "url": "Observation/smart-Observation-1001-weight"
            }
        },
        {
            "resource": {
                "resourceType": "Observation",
                "id": "smart-Observation-1001-bmi",
                "text": {
                    "div": "<div>2008-08-07: bmi = 15.0 kg/m2</div>",
                    "status": "generated"
                },
                "category": {
                    "coding": [
                        {
                            "system": "http://hl7.org/fhir/observation-category",
                            "code": "vital-signs",
                            "display": "Vital Signs"
                        }
                    ],
                    "text": "Vital Signs"
                },
                "code": {
                    "coding": [
                        {
                            "system": "http://loinc.org",
                            "code": "39156-5",
                            "display": "bmi"
                        }
                    ],
                    "text": "bmi"
                },
                "valueQuantity": {
                    "value": 15,
                    "system": "http://unitsofmeasure.org",
                    "code": "kg/m2"
                },
                "status": "final",
                "subject": {
                    "reference": "Patient/smart-7777703"
                },
                "encounter": {
                    "reference": "Encounter/smart-Encounter-1001"
                }
            },
            "request": {
                "method": "PUT",
                "url": "Observation/smart-Observation-1001-bmi"
            }
        },
        {
            "resource": {
                "resourceType": "Observation",
                "id": "smart-Observation-1002-height",
                "text": {
                    "div": "<div>2010-02-06: height = 108.2 cm</div>",
                    "status": "generated"
                },
                "category": {
                    "coding": [
                        {
                            "system": "http://hl7.org/fhir/observation-category",
                            "code": "vital-signs",
                            "display": "Vital Signs"
                        }
                    ],
                    "text": "Vital Signs"
                },
                "code": {
                    "coding": [
                        {
                            "system": "http://loinc.org",
                            "code": "8302-2",
                            "display": "height"
                        }
                    ],
                    "text": "height"
                },
                "valueQuantity": {
                    "value": 108.2,
                    "system": "http://unitsofmeasure.org",
                    "code": "cm"
                },
                "status": "final",
                "subject": {
                    "reference": "Patient/smart-7777703"
                },
                "encounter": {
                    "reference": "Encounter/smart-Encounter-1002"
                }
            },
            "request": {
                "method": "PUT",
                "url": "Observation/smart-Observation-1002-height"
            }
        },
        {
            "resource": {
                "resourceType": "Observation",
                "id": "smart-Observation-1002-weight",
                "text": {
                    "div": "<div>2010-02-06: weight = 17.9 kg</div>",
                    "status": "generated"
                },
                "category": {
                    "coding": [
                        {
                            "system": "http://hl7.org/fhir/observation-category",
                            "code": "vital-signs",
                            "display": "Vital Signs"
                        }
                    ],
                    "text": "Vital Signs"
                },
                "code": {
                    "coding": [
                        {
                            "system": "http://loinc.org",
                            "code": "3141-9",
                            "display": "weight"
                        }
                    ],
                    "text": "weight"
                },
                "valueQuantity": {
                    "value": 17.9,
                    "system": "http://unitsofmeasure.org",
                    "code": "kg"
                },
                "status": "final",
                "subject": {
                    "reference": "Patient/smart-7777703"
                },
                "encounter": {
                    "reference": "Encounter/smart-Encounter-1002"
                }
            },
            "request": {
                "method": "PUT",
                "url": "Observation/smart-Observation-1002-weight"
            }
        },
        {
            "resource": {
                "resourceType": "Observation",
                "id": "smart-Observation-1002-bmi",
                "text": {
                    "div": "<div>2010-02-06: bmi = 15.1 kg/m2</div>",
                    "status": "generated"
                },
                "category": {
                    "coding": [
                        {
                            "system": "http://hl7.org/fhir/observation-category",
                            "code": "vital-signs",
                            "display": "Vital Signs"
                        }
                    ],
                    "text": "Vital Signs"
                },
                "code": {
                    "coding": [
                        {
                            "system": "http://loinc.org",
                            "code": "39156-5",
                            "display": "bmi"
                        }
                    ],
                    "text": "bmi"
                },
                "valueQuantity": {
                    "value": 15.1,
                    "system": "http://unitsofmeasure.org",
                    "code": "kg/m2"
                },
                "status": "final",
                "subject": {
                    "reference": "Patient/smart-7777703"
                },
                "encounter": {
                    "reference": "Encounter/smart-Encounter-1002"
                }
            },
            "request": {
                "method": "PUT",
                "url": "Observation/smart-Observation-1002-bmi"
            }
        },
        {
            "resource": {
                "resourceType": "Observation",
                "id": "smart-Observation-1003-height",
                "text": {
                    "div": "<div>2010-08-07: height = 111.1 cm</div>",
                    "status": "generated"
                },
                "category": {
                    "coding": [
                        {
                            "system": "http://hl7.org/fhir/observation-category",
                            "code": "vital-signs",
                            "display": "Vital Signs"
                        }
                    ],
                    "text": "Vital Signs"
                },
                "code": {
                    "coding": [
                        {
                            "system": "http://loinc.org",
                            "code": "8302-2",
                            "display": "height"
                        }
                    ],
                    "text": "height"
                },
                "valueQuantity": {
                    "value": 111.1,
                    "system": "http://unitsofmeasure.org",
                    "code": "cm"
                },
                "status": "final",
                "subject": {
                    "reference": "Patient/smart-7777703"
                },
                "encounter": {
                    "reference": "Encounter/smart-Encounter-1003"
                }
            },
            "request": {
                "method": "PUT",
                "url": "Observation/smart-Observation-1003-height"
            }
        },
        {
            "resource": {
                "resourceType": "Observation",
                "id": "smart-Observation-1003-weight",
                "text": {
                    "div": "<div>2010-08-07: weight = 18.7 kg</div>",
                    "status": "generated"
                },
                "category": {
                    "coding": [
                        {
                            "system": "http://hl7.org/fhir/observation-category",
                            "code": "vital-signs",
                            "display": "Vital Signs"
                        }
                    ],
                    "text": "Vital Signs"
                },
                "code": {
                    "coding": [
                        {
                            "system": "http://loinc.org",
                            "code": "3141-9",
                            "display": "weight"
                        }
                    ],
                    "text": "weight"
                },
                "valueQuantity": {
                    "value": 18.7,
                    "system": "http://unitsofmeasure.org",
                    "code": "kg"
                },
                "status": "final",
                "subject": {
                    "reference": "Patient/smart-7777703"
                },
                "encounter": {
                    "reference": "Encounter/smart-Encounter-1003"
                }
            },
            "request": {
                "method": "PUT",
                "url": "Observation/smart-Observation-1003-weight"
            }
        },
        {
            "resource": {
                "resourceType": "Observation",
                "id": "smart-Observation-1003-bmi",
                "text": {
                    "div": "<div>2010-08-07: bmi = 15.1 kg/m2</div>",
                    "status": "generated"
                },
                "category": {
                    "coding": [
                        {
                            "system": "http://hl7.org/fhir/observation-category",
                            "code": "vital-signs",
                            "display": "Vital Signs"
                        }
                    ],
                    "text": "Vital Signs"
                },
                "code": {
                    "coding": [
                        {
                            "system": "http://loinc.org",
                            "code": "39156-5",
                            "display": "bmi"
                        }
                    ],
                    "text": "bmi"
                },
                "valueQuantity": {
                    "value": 15.1,
                    "system": "http://unitsofmeasure.org",
                    "code": "kg/m2"
                },
                "status": "final",
                "subject": {
                    "reference": "Patient/smart-7777703"
                },
                "encounter": {
                    "reference": "Encounter/smart-Encounter-1003"
                }
            },
            "request": {
                "method": "PUT",
                "url": "Observation/smart-Observation-1003-bmi"
            }
        },
        {
            "resource": {
                "resourceType": "Observation",
                "id": "smart-Observation-1004-height",
                "text": {
                    "div": "<div>2011-03-14: height = 114.0 cm</div>",
                    "status": "generated"
                },
                "category": {
                    "coding": [
                        {
                            "system": "http://hl7.org/fhir/observation-category",
                            "code": "vital-signs",
                            "display": "Vital Signs"
                        }
                    ],
                    "text": "Vital Signs"
                },
                "code": {
                    "coding": [
                        {
                            "system": "http://loinc.org",
                            "code": "8302-2",
                            "display": "height"
                        }
                    ],
                    "text": "height"
                },
                "valueQuantity": {
                    "value": 114,
                    "system": "http://unitsofmeasure.org",
                    "code": "cm"
                },
                "status": "final",
                "subject": {
                    "reference": "Patient/smart-7777703"
                },
                "encounter": {
                    "reference": "Encounter/smart-Encounter-1004"
                }
            },
            "request": {
                "method": "PUT",
                "url": "Observation/smart-Observation-1004-height"
            }
        },
        {
            "resource": {
                "resourceType": "Observation",
                "id": "smart-Observation-1004-weight",
                "text": {
                    "div": "<div>2011-03-14: weight = 20.3 kg</div>",
                    "status": "generated"
                },
                "category": {
                    "coding": [
                        {
                            "system": "http://hl7.org/fhir/observation-category",
                            "code": "vital-signs",
                            "display": "Vital Signs"
                        }
                    ],
                    "text": "Vital Signs"
                },
                "code": {
                    "coding": [
                        {
                            "system": "http://loinc.org",
                            "code": "3141-9",
                            "display": "weight"
                        }
                    ],
                    "text": "weight"
                },
                "valueQuantity": {
                    "value": 20.3,
                    "system": "http://unitsofmeasure.org",
                    "code": "kg"
                },
                "status": "final",
                "subject": {
                    "reference": "Patient/smart-7777703"
                },
                "encounter": {
                    "reference": "Encounter/smart-Encounter-1004"
                }
            },
            "request": {
                "method": "PUT",
                "url": "Observation/smart-Observation-1004-weight"
            }
        },
        {
            "resource": {
                "resourceType": "Observation",
                "id": "smart-Observation-1004-bmi",
                "text": {
                    "div": "<div>2011-03-14: bmi = 15.6 kg/m2</div>",
                    "status": "generated"
                },
                "category": {
                    "coding": [
                        {
                            "system": "http://hl7.org/fhir/observation-category",
                            "code": "vital-signs",
                            "display": "Vital Signs"
                        }
                    ],
                    "text": "Vital Signs"
                },
                "code": {
                    "coding": [
                        {
                            "system": "http://loinc.org",
                            "code": "39156-5",
                            "display": "bmi"
                        }
                    ],
                    "text": "bmi"
                },
                "valueQuantity": {
                    "value": 15.6,
                    "system": "http://unitsofmeasure.org",
                    "code": "kg/m2"
                },
                "status": "final",
                "subject": {
                    "reference": "Patient/smart-7777703"
                },
                "encounter": {
                    "reference": "Encounter/smart-Encounter-1004"
                }
            },
            "request": {
                "method": "PUT",
                "url": "Observation/smart-Observation-1004-bmi"
            }
        },
        {
            "resource": {
                "resourceType": "Observation",
                "id": "smart-Observation-1005-height",
                "text": {
                    "div": "<div>2011-08-07: height = 118.1 cm</div>",
                    "status": "generated"
                },
                "category": {
                    "coding": [
                        {
                            "system": "http://hl7.org/fhir/observation-category",
                            "code": "vital-signs",
                            "display": "Vital Signs"
                        }
                    ],
                    "text": "Vital Signs"
                },
                "code": {
                    "coding": [
                        {
                            "system": "http://loinc.org",
                            "code": "8302-2",
                            "display": "height"
                        }
                    ],
                    "text": "height"
                },
                "valueQuantity": {
                    "value": 118.1,
                    "system": "http://unitsofmeasure.org",
                    "code": "cm"
                },
                "status": "final",
                "subject": {
                    "reference": "Patient/smart-7777703"
                },
                "encounter": {
                    "reference": "Encounter/smart-Encounter-1005"
                }
            },
            "request": {
                "method": "PUT",
                "url": "Observation/smart-Observation-1005-height"
            }
        },
        {
            "resource": {
                "resourceType": "Observation",
                "id": "smart-Observation-1005-weight",
                "text": {
                    "div": "<div>2011-08-07: weight = 21.7 kg</div>",
                    "status": "generated"
                },
                "category": {
                    "coding": [
                        {
                            "system": "http://hl7.org/fhir/observation-category",
                            "code": "vital-signs",
                            "display": "Vital Signs"
                        }
                    ],
                    "text": "Vital Signs"
                },
                "code": {
                    "coding": [
                        {
                            "system": "http://loinc.org",
                            "code": "3141-9",
                            "display": "weight"
                        }
                    ],
                    "text": "weight"
                },
                "valueQuantity": {
                    "value": 21.7,
                    "system": "http://unitsofmeasure.org",
                    "code": "kg"
                },
                "status": "final",
                "subject": {
                    "reference": "Patient/smart-7777703"
                },
                "encounter": {
                    "reference": "Encounter/smart-Encounter-1005"
                }
            },
            "request": {
                "method": "PUT",
                "url": "Observation/smart-Observation-1005-weight"
            }
        },
        {
            "resource": {
                "resourceType": "Observation",
                "id": "smart-Observation-1005-bmi",
                "text": {
                    "div": "<div>2011-08-07: bmi = 15.4 kg/m2</div>",
                    "status": "generated"
                },
                "category": {
                    "coding": [
                        {
                            "system": "http://hl7.org/fhir/observation-category",
                            "code": "vital-signs",
                            "display": "Vital Signs"
                        }
                    ],
                    "text": "Vital Signs"
                },
                "code": {
                    "coding": [
                        {
                            "system": "http://loinc.org",
                            "code": "39156-5",
                            "display": "bmi"
                        }
                    ],
                    "text": "bmi"
                },
                "valueQuantity": {
                    "value": 15.4,
                    "system": "http://unitsofmeasure.org",
                    "code": "kg/m2"
                },
                "status": "final",
                "subject": {
                    "reference": "Patient/smart-7777703"
                },
                "encounter": {
                    "reference": "Encounter/smart-Encounter-1005"
                }
            },
            "request": {
                "method": "PUT",
                "url": "Observation/smart-Observation-1005-bmi"
            }
        },
        {
            "resource": {
                "resourceType": "Observation",
                "id": "smart-Observation-1006-height",
                "text": {
                    "div": "<div>2012-03-13: height = 119.6 cm</div>",
                    "status": "generated"
                },
                "category": {
                    "coding": [
                        {
                            "system": "http://hl7.org/fhir/observation-category",
                            "code": "vital-signs",
                            "display": "Vital Signs"
                        }
                    ],
                    "text": "Vital Signs"
                },
                "code": {
                    "coding": [
                        {
                            "system": "http://loinc.org",
                            "code": "8302-2",
                            "display": "height"
                        }
                    ],
                    "text": "height"
                },
                "valueQuantity": {
                    "value": 119.6,
                    "system": "http://unitsofmeasure.org",
                    "code": "cm"
                },
                "status": "final",
                "subject": {
                    "reference": "Patient/smart-7777703"
                },
                "encounter": {
                    "reference": "Encounter/smart-Encounter-1006"
                }
            },
            "request": {
                "method": "PUT",
                "url": "Observation/smart-Observation-1006-height"
            }
        },
        {
            "resource": {
                "resourceType": "Observation",
                "id": "smart-Observation-1006-weight",
                "text": {
                    "div": "<div>2012-03-13: weight = 23.6 kg</div>",
                    "status": "generated"
                },
                "category": {
                    "coding": [
                        {
                            "system": "http://hl7.org/fhir/observation-category",
                            "code": "vital-signs",
                            "display": "Vital Signs"
                        }
                    ],
                    "text": "Vital Signs"
                },
                "code": {
                    "coding": [
                        {
                            "system": "http://loinc.org",
                            "code": "3141-9",
                            "display": "weight"
                        }
                    ],
                    "text": "weight"
                },
                "valueQuantity": {
                    "value": 23.6,
                    "system": "http://unitsofmeasure.org",
                    "code": "kg"
                },
                "status": "final",
                "subject": {
                    "reference": "Patient/smart-7777703"
                },
                "encounter": {
                    "reference": "Encounter/smart-Encounter-1006"
                }
            },
            "request": {
                "method": "PUT",
                "url": "Observation/smart-Observation-1006-weight"
            }
        },
        {
            "resource": {
                "resourceType": "Observation",
                "id": "smart-Observation-1006-bmi",
                "text": {
                    "div": "<div>2012-03-13: bmi = 16.5 kg/m2</div>",
                    "status": "generated"
                },
                "category": {
                    "coding": [
                        {
                            "system": "http://hl7.org/fhir/observation-category",
                            "code": "vital-signs",
                            "display": "Vital Signs"
                        }
                    ],
                    "text": "Vital Signs"
                },
                "code": {
                    "coding": [
                        {
                            "system": "http://loinc.org",
                            "code": "39156-5",
                            "display": "bmi"
                        }
                    ],
                    "text": "bmi"
                },
                "valueQuantity": {
                    "value": 16.5,
                    "system": "http://unitsofmeasure.org",
                    "code": "kg/m2"
                },
                "status": "final",
                "subject": {
                    "reference": "Patient/smart-7777703"
                },
                "encounter": {
                    "reference": "Encounter/smart-Encounter-1006"
                }
            },
            "request": {
                "method": "PUT",
                "url": "Observation/smart-Observation-1006-bmi"
            }
        },
        {
            "resource": {
                "resourceType": "Observation",
                "id": "smart-Observation-1007-height",
                "text": {
                    "div": "<div>2012-09-12: height = 122.3 cm</div>",
                    "status": "generated"
                },
                "category": {
                    "coding": [
                        {
                            "system": "http://hl7.org/fhir/observation-category",
                            "code": "vital-signs",
                            "display": "Vital Signs"
                        }
                    ],
                    "text": "Vital Signs"
                },
                "code": {
                    "coding": [
                        {
                            "system": "http://loinc.org",
                            "code": "8302-2",
                            "display": "height"
                        }
                    ],
                    "text": "height"
                },
                "valueQuantity": {
                    "value": 122.3,
                    "system": "http://unitsofmeasure.org",
                    "code": "cm"
                },
                "status": "final",
                "subject": {
                    "reference": "Patient/smart-7777703"
                },
                "encounter": {
                    "reference": "Encounter/smart-Encounter-1007"
                }
            },
            "request": {
                "method": "PUT",
                "url": "Observation/smart-Observation-1007-height"
            }
        },
        {
            "resource": {
                "resourceType": "Observation",
                "id": "smart-Observation-1007-weight",
                "text": {
                    "div": "<div>2012-09-12: weight = 24.2 kg</div>",
                    "status": "generated"
                },
                "category": {
                    "coding": [
                        {
                            "system": "http://hl7.org/fhir/observation-category",
                            "code": "vital-signs",
                            "display": "Vital Signs"
                        }
                    ],
                    "text": "Vital Signs"
                },
                "code": {
                    "coding": [
                        {
                            "system": "http://loinc.org",
                            "code": "3141-9",
                            "display": "weight"
                        }
                    ],
                    "text": "weight"
                },
                "valueQuantity": {
                    "value": 24.2,
                    "system": "http://unitsofmeasure.org",
                    "code": "kg"
                },
                "status": "final",
                "subject": {
                    "reference": "Patient/smart-7777703"
                },
                "encounter": {
                    "reference": "Encounter/smart-Encounter-1007"
                }
            },
            "request": {
                "method": "PUT",
                "url": "Observation/smart-Observation-1007-weight"
            }
        },
        {
            "resource": {
                "resourceType": "Observation",
                "id": "smart-Observation-1007-bmi",
                "text": {
                    "div": "<div>2012-09-12: bmi = 16.2 kg/m2</div>",
                    "status": "generated"
                },
                "category": {
                    "coding": [
                        {
                            "system": "http://hl7.org/fhir/observation-category",
                            "code": "vital-signs",
                            "display": "Vital Signs"
                        }
                    ],
                    "text": "Vital Signs"
                },
                "code": {
                    "coding": [
                        {
                            "system": "http://loinc.org",
                            "code": "39156-5",
                            "display": "bmi"
                        }
                    ],
                    "text": "bmi"
                },
                "valueQuantity": {
                    "value": 16.2,
                    "system": "http://unitsofmeasure.org",
                    "code": "kg/m2"
                },
                "status": "final",
                "subject": {
                    "reference": "Patient/smart-7777703"
                },
                "encounter": {
                    "reference": "Encounter/smart-Encounter-1007"
                }
            },
            "request": {
                "method": "PUT",
                "url": "Observation/smart-Observation-1007-bmi"
            }
        },
        {
            "resource": {
                "resourceType": "Observation",
                "id": "smart-Observation-1008-height",
                "text": {
                    "div": "<div>2013-02-05: height = 123.9 cm</div>",
                    "status": "generated"
                },
                "category": {
                    "coding": [
                        {
                            "system": "http://hl7.org/fhir/observation-category",
                            "code": "vital-signs",
                            "display": "Vital Signs"
                        }
                    ],
                    "text": "Vital Signs"
                },
                "code": {
                    "coding": [
                        {
                            "system": "http://loinc.org",
                            "code": "8302-2",
                            "display": "height"
                        }
                    ],
                    "text": "height"
                },
                "valueQuantity": {
                    "value": 123.9,
                    "system": "http://unitsofmeasure.org",
                    "code": "cm"
                },
                "status": "final",
                "subject": {
                    "reference": "Patient/smart-7777703"
                },
                "encounter": {
                    "reference": "Encounter/smart-Encounter-1008"
                }
            },
            "request": {
                "method": "PUT",
                "url": "Observation/smart-Observation-1008-height"
            }
        },
        {
            "resource": {
                "resourceType": "Observation",
                "id": "smart-Observation-1008-weight",
                "text": {
                    "div": "<div>2013-02-05: weight = 24.4 kg</div>",
                    "status": "generated"
                },
                "category": {
                    "coding": [
                        {
                            "system": "http://hl7.org/fhir/observation-category",
                            "code": "vital-signs",
                            "display": "Vital Signs"
                        }
                    ],
                    "text": "Vital Signs"
                },
                "code": {
                    "coding": [
                        {
                            "system": "http://loinc.org",
                            "code": "3141-9",
                            "display": "weight"
                        }
                    ],
                    "text": "weight"
                },
                "valueQuantity": {
                    "value": 24.4,
                    "system": "http://unitsofmeasure.org",
                    "code": "kg"
                },
                "status": "final",
                "subject": {
                    "reference": "Patient/smart-7777703"
                },
                "encounter": {
                    "reference": "Encounter/smart-Encounter-1008"
                }
            },
            "request": {
                "method": "PUT",
                "url": "Observation/smart-Observation-1008-weight"
            }
        },
        {
            "resource": {
                "resourceType": "Observation",
                "id": "smart-Observation-1008-bmi",
                "text": {
                    "div": "<div>2013-02-05: bmi = 15.8 kg/m2</div>",
                    "status": "generated"
                },
                "category": {
                    "coding": [
                        {
                            "system": "http://hl7.org/fhir/observation-category",
                            "code": "vital-signs",
                            "display": "Vital Signs"
                        }
                    ],
                    "text": "Vital Signs"
                },
                "code": {
                    "coding": [
                        {
                            "system": "http://loinc.org",
                            "code": "39156-5",
                            "display": "bmi"
                        }
                    ],
                    "text": "bmi"
                },
                "valueQuantity": {
                    "value": 15.8,
                    "system": "http://unitsofmeasure.org",
                    "code": "kg/m2"
                },
                "status": "final",
                "subject": {
                    "reference": "Patient/smart-7777703"
                },
                "encounter": {
                    "reference": "Encounter/smart-Encounter-1008"
                }
            },
            "request": {
                "method": "PUT",
                "url": "Observation/smart-Observation-1008-bmi"
            }
        },
        {
            "resource": {
                "resourceType": "Observation",
                "id": "smart-Observation-3503-lab",
                "text": {
                    "div": "<div>2011-08-07: Bones XR Bone Age = 121 mo</div>",
                    "status": "generated"
                },
                "category": {
                    "coding": [
                        {
                            "system": "http://hl7.org/fhir/observation-category",
                            "code": "laboratory",
                            "display": "Laboratory"
                        }
                    ],
                    "text": "Laboratory"
                },
                "code": {
                    "coding": [
                        {
                            "system": "http://loinc.org",
                            "code": "37362-1",
                            "display": "Bones XR Bone Age"
                        }
                    ],
                    "text": "Bones XR Bone Age"
                },
                "valueQuantity": {
                    "value": 121,
                    "system": "http://unitsofmeasure.org"
                },
                "status": "final",
                "subject": {
                    "reference": "Patient/smart-7777703"
                }
            },
            "request": {
                "method": "PUT",
                "url": "Observation/smart-Observation-3503-lab"
            }
        },
        {
            "resource": {
                "resourceType": "Observation",
                "id": "smart-Observation-3504-lab",
                "text": {
                    "div": "<div>2013-02-05: Bones XR Bone Age = 162 mo</div>",
                    "status": "generated"
                },
                "category": {
                    "coding": [
                        {
                            "system": "http://hl7.org/fhir/observation-category",
                            "code": "laboratory",
                            "display": "Laboratory"
                        }
                    ],
                    "text": "Laboratory"
                },
                "code": {
                    "coding": [
                        {
                            "system": "http://loinc.org",
                            "code": "37362-1",
                            "display": "Bones XR Bone Age"
                        }
                    ],
                    "text": "Bones XR Bone Age"
                },
                "valueQuantity": {
                    "value": 162,
                    "system": "http://unitsofmeasure.org"
                },
                "status": "final",
                "subject": {
                    "reference": "Patient/smart-7777703"
                }
            },
            "request": {
                "method": "PUT",
                "url": "Observation/smart-Observation-3504-lab"
            }
        },
        {
            "resource": {
                "resourceType": "FamilyMemberHistory",
                "id": "smart-FamilyMemberHistory-11",
                "extension": [
                    {
                        "url": "http://fhir-registry.smarthealthit.org/StructureDefinition/family-history#height",
                        "valueQuantity": {
                            "value": 182,
                            "system": "http://unitsofmeasure.org",
                            "code": "cm"
                        }
                    }
                ],
                "text": {
                    "div": "<div>Data on patient's Father</div>",
                    "status": "generated"
                },
                "patient": {
                    "reference": "Patient/smart-7777703"
                },
                "relationship": {
                    "coding": [
                        {
                            "system": "http://hl7.org/fhir/v3/RoleCode",
                            "code": "FTH",
                            "display": "father"
                        }
                    ]
                }
            },
            "request": {
                "method": "PUT",
                "url": "FamilyMemberHistory/smart-FamilyMemberHistory-11"
            }
        },
        {
            "resource": {
                "resourceType": "FamilyMemberHistory",
                "id": "smart-FamilyMemberHistory-12",
                "extension": [
                    {
                        "url": "http://fhir-registry.smarthealthit.org/StructureDefinition/family-history#height",
                        "valueQuantity": {
                            "value": 163,
                            "system": "http://unitsofmeasure.org",
                            "code": "cm"
                        }
                    }
                ],
                "text": {
                    "div": "<div>Data on patient's Mother</div>",
                    "status": "generated"
                },
                "patient": {
                    "reference": "Patient/smart-7777703"
                },
                "relationship": {
                    "coding": [
                        {
                            "system": "http://hl7.org/fhir/v3/RoleCode",
                            "code": "MTH",
                            "display": "mother"
                        }
                    ]
                }
            },
            "request": {
                "method": "PUT",
                "url": "FamilyMemberHistory/smart-FamilyMemberHistory-12"
            }
        }
    ]
}