{
    "resourceType": "Bundle",
    "type": "transaction",
    "entry": [
        {
            "resource": {
                "resourceType": "Patient",
                "id": "smart-9995679",
                "text": {
                    "div": "<div><p>Aaron Alexis</p></div>",
                    "status": "generated"
                },
                "identifier": [
                    {
                        "use": "usual",
                        "system": "http://hospital.smarthealthit.org",
                        "value": "9995679"
                    }
                ],
                "name": [
                    {
                        "use": "official",
                        "family": [
                            "Alexis"
                        ],
                        "given": [
                            "Aaron"
                        ]
                    }
                ],
                "gender": "male",
                "birthDate": "1989-10-26",
                "address": [
                    {
                        "use": "home",
                        "country": "USA"
                    }
                ],
                "active": true,
                "meta": {
                    "tag": [
                        {
                            "system": "https://smarthealthit.org/tags",
                            "code": "smart-8-2017"
                        }
                    ]
                }
            },
            "request": {
                "method": "PUT",
                "url": "Patient/smart-9995679"
            }
        },
        {
            "resource": {
                "resourceType": "Encounter",
                "id": "smart-Encounter-1",
                "text": {
                    "div": "<div>2006-12-27T15:53:00: ambulatory encounter</div>",
                    "status": "generated"
                },
                "status": "finished",
                "class": "ambulatory",
                "patient": {
                    "reference": "Patient/smart-9995679"
                },
                "period": {
                    "start": "2006-12-27T15:53:00",
                    "end": "2006-12-28T04:59:59"
                },
                "meta": {
                    "tag": [
                        {
                            "system": "https://smarthealthit.org/tags",
                            "code": "smart-8-2017"
                        }
                    ]
                }
            },
            "request": {
                "method": "PUT",
                "url": "Encounter/smart-Encounter-1"
            }
        },
        {
            "resource": {
                "resourceType": "Encounter",
                "id": "smart-Encounter-2",
                "text": {
                    "div": "<div>2007-04-18T13:32:00: ambulatory encounter</div>",
                    "status": "generated"
                },
                "status": "finished",
                "class": "ambulatory",
                "patient": {
                    "reference": "Patient/smart-9995679"
                },
                "period": {
                    "start": "2007-04-18T13:32:00",
                    "end": "2007-04-19T04:59:59"
                },
                "meta": {
                    "tag": [
                        {
                            "system": "https://smarthealthit.org/tags",
                            "code": "smart-8-2017"
                        }
                    ]
                }
            },
            "request": {
                "method": "PUT",
                "url": "Encounter/smart-Encounter-2"
            }
        },
        {
            "resource": {
                "resourceType": "Encounter",
                "id": "smart-Encounter-3",
                "text": {
                    "div": "<div>2007-07-18T12:49:00: ambulatory encounter</div>",
                    "status": "generated"
                },
                "status": "finished",
                "class": "ambulatory",
                "patient": {
                    "reference": "Patient/smart-9995679"
                },
                "period": {
                    "start": "2007-07-18T12:49:00",
                    "end": "2007-07-19T04:59:59"
                },
                "meta": {
                    "tag": [
                        {
                            "system": "https://smarthealthit.org/tags",
                            "code": "smart-8-2017"
                        }
                    ]
                }
            },
            "request": {
                "method": "PUT",
                "url": "Encounter/smart-Encounter-3"
            }
        },
        {
            "resource": {
                "resourceType": "Encounter",
                "id": "smart-Encounter-4",
                "text": {
                    "div": "<div>2008-01-16T13:03:00: ambulatory encounter</div>",
                    "status": "generated"
                },
                "status": "finished",
                "class": "ambulatory",
                "patient": {
                    "reference": "Patient/smart-9995679"
                },
                "period": {
                    "start": "2008-01-16T13:03:00",
                    "end": "2008-01-17T04:59:59"
                },
                "meta": {
                    "tag": [
                        {
                            "system": "https://smarthealthit.org/tags",
                            "code": "smart-8-2017"
                        }
                    ]
                }
            },
            "request": {
                "method": "PUT",
                "url": "Encounter/smart-Encounter-4"
            }
        },
        {
            "resource": {
                "resourceType": "Encounter",
                "id": "smart-Encounter-5",
                "text": {
                    "div": "<div>2008-06-25T15:45:00: ambulatory encounter</div>",
                    "status": "generated"
                },
                "status": "finished",
                "class": "ambulatory",
                "patient": {
                    "reference": "Patient/smart-9995679"
                },
                "period": {
                    "start": "2008-06-25T15:45:00",
                    "end": "2008-06-26T04:59:59"
                },
                "meta": {
                    "tag": [
                        {
                            "system": "https://smarthealthit.org/tags",
                            "code": "smart-8-2017"
                        }
                    ]
                }
            },
            "request": {
                "method": "PUT",
                "url": "Encounter/smart-Encounter-5"
            }
        },
        {
            "resource": {
                "resourceType": "Encounter",
                "id": "smart-Encounter-7",
                "text": {
                    "div": "<div>2009-06-10T12:39:00: ambulatory encounter</div>",
                    "status": "generated"
                },
                "status": "finished",
                "class": "ambulatory",
                "patient": {
                    "reference": "Patient/smart-9995679"
                },
                "period": {
                    "start": "2009-06-10T12:39:00",
                    "end": "2009-06-11T04:59:59"
                },
                "meta": {
                    "tag": [
                        {
                            "system": "https://smarthealthit.org/tags",
                            "code": "smart-8-2017"
                        }
                    ]
                }
            },
            "request": {
                "method": "PUT",
                "url": "Encounter/smart-Encounter-7"
            }
        },
        {
            "resource": {
                "resourceType": "Encounter",
                "id": "smart-Encounter-9",
                "text": {
                    "div": "<div>2009-12-23T12:54:00: ambulatory encounter</div>",
                    "status": "generated"
                },
                "status": "finished",
                "class": "ambulatory",
                "patient": {
                    "reference": "Patient/smart-9995679"
                },
                "period": {
                    "start": "2009-12-23T12:54:00",
                    "end": "2009-12-24T04:59:59"
                },
                "meta": {
                    "tag": [
                        {
                            "system": "https://smarthealthit.org/tags",
                            "code": "smart-8-2017"
                        }
                    ]
                }
            },
            "request": {
                "method": "PUT",
                "url": "Encounter/smart-Encounter-9"
            }
        },
        {
            "resource": {
                "resourceType": "Encounter",
                "id": "smart-Encounter-15",
                "text": {
                    "div": "<div>2010-12-22T17:23:00: ambulatory encounter</div>",
                    "status": "generated"
                },
                "status": "finished",
                "class": "ambulatory",
                "patient": {
                    "reference": "Patient/smart-9995679"
                },
                "period": {
                    "start": "2010-12-22T17:23:00",
                    "end": "2010-12-23T04:59:59"
                },
                "meta": {
                    "tag": [
                        {
                            "system": "https://smarthealthit.org/tags",
                            "code": "smart-8-2017"
                        }
                    ]
                }
            },
            "request": {
                "method": "PUT",
                "url": "Encounter/smart-Encounter-15"
            }
        },
        {
            "resource": {
                "resourceType": "Observation",
                "id": "smart-Observation-2-bp",
                "text": {
                    "div": "<div>2007-04-18: Blood pressure 121/62 mmHg</div>",
                    "status": "generated"
                },
                "category": {
                    "coding": [
                        {
                            "system": "http://hl7.org/fhir/observation-category",
                            "code": "vital-signs",
                            "display": "Vital Signs"
                        }
                    ],
                    "text": "Vital Signs"
                },
                "code": {
                    "coding": [
                        {
                            "system": "http://loinc.org",
                            "code": "55284-4",
                            "display": "Blood pressure systolic and diastolic"
                        }
                    ],
                    "text": "Blood pressure systolic and diastolic"
                },
                "effectiveDateTime": "2007-04-18",
                "status": "final",
                "subject": {
                    "reference": "Patient/smart-9995679"
                },
                "bodySite": {
                    "coding": [
                        {
                            "system": "http://snomed.info/sct",
                            "code": "368209003",
                            "display": "right arm"
                        }
                    ],
                    "text": "right arm"
                },
                "encounter": {
                    "reference": "Encounter/smart-Encounter-2"
                },
                "component": [
                    {
                        "code": {
                            "coding": [
                                {
                                    "system": "http://loinc.org",
                                    "code": "8480-6",
                                    "display": "Systolic blood pressure"
                                }
                            ],
                            "text": "Systolic blood pressure"
                        },
                        "valueQuantity": {
                            "value": 121,
                            "system": "http://unitsofmeasure.org",
                            "code": "mm[Hg]"
                        }
                    },
                    {
                        "code": {
                            "coding": [
                                {
                                    "system": "http://loinc.org",
                                    "code": "8462-4",
                                    "display": "Diastolic blood pressure"
                                }
                            ],
                            "text": "Diastolic blood pressure"
                        },
                        "valueQuantity": {
                            "value": 62,
                            "system": "http://unitsofmeasure.org",
                            "code": "mm[Hg]"
                        }
                    }
                ],
                "meta": {
                    "tag": [
                        {
                            "system": "https://smarthealthit.org/tags",
                            "code": "smart-8-2017"
                        }
                    ]
                }
            },
            "request": {
                "method": "PUT",
                "url": "Observation/smart-Observation-2-bp"
            }
        },
        {
            "resource": {
                "resourceType": "Observation",
                "id": "smart-Observation-2-systolic",
                "text": {
                    "div": "<div>2007-04-18: Systolic blood pressure = 121 mm[Hg]</div>",
                    "status": "generated"
                },
                "category": {
                    "coding": [
                        {
                            "system": "http://hl7.org/fhir/observation-category",
                            "code": "vital-signs",
                            "display": "Vital Signs"
                        }
                    ],
                    "text": "Vital Signs"
                },
                "code": {
                    "coding": [
                        {
                            "system": "http://loinc.org",
                            "code": "8480-6",
                            "display": "Systolic blood pressure"
                        }
                    ],
                    "text": "Systolic blood pressure"
                },
                "valueQuantity": {
                    "value": 121,
                    "system": "http://unitsofmeasure.org",
                    "code": "mm[Hg]"
                },
                "effectiveDateTime": "2007-04-18",
                "status": "final",
                "subject": {
                    "reference": "Patient/smart-9995679"
                },
                "meta": {
                    "tag": [
                        {
                            "system": "https://smarthealthit.org/tags",
                            "code": "smart-8-2017"
                        }
                    ]
                }
            },
            "request": {
                "method": "PUT",
                "url": "Observation/smart-Observation-2-systolic"
            }
        },
        {
            "resource": {
                "resourceType": "Observation",
                "id": "smart-Observation-2-diastolic",
                "text": {
                    "div": "<div>2007-04-18: Diastolic blood pressure = 62 mm[Hg]</div>",
                    "status": "generated"
                },
                "category": {
                    "coding": [
                        {
                            "system": "http://hl7.org/fhir/observation-category",
                            "code": "vital-signs",
                            "display": "Vital Signs"
                        }
                    ],
                    "text": "Vital Signs"
                },
                "code": {
                    "coding": [
                        {
                            "system": "http://loinc.org",
                            "code": "8462-4",
                            "display": "Diastolic blood pressure"
                        }
                    ],
                    "text": "Diastolic blood pressure"
                },
                "valueQuantity": {
                    "value": 62,
                    "system": "http://unitsofmeasure.org",
                    "code": "mm[Hg]"
                },
                "effectiveDateTime": "2007-04-18",
                "status": "final",
                "subject": {
                    "reference": "Patient/smart-9995679"
                },
                "meta": {
                    "tag": [
                        {
                            "system": "https://smarthealthit.org/tags",
                            "code": "smart-8-2017"
                        }
                    ]
                }
            },
            "request": {
                "method": "PUT",
                "url": "Observation/smart-Observation-2-diastolic"
            }
        },
        {
            "resource": {
                "resourceType": "Observation",
                "id": "smart-Observation-3-bp",
                "extension": [
                    {
                        "url": "http://fhir-registry.smarthealthit.org/StructureDefinition/vital-signs#position",
                        "valueCodeableConcept": {
                            "coding": [
                                {
                                    "system": "http://snomed.info/sct",
                                    "code": "40199007",
                                    "display": "supine"
                                }
                            ],
                            "text": "supine"
                        }
                    }
                ],
                "text": {
                    "div": "<div>2007-07-18: Blood pressure 116/64 mmHg</div>",
                    "status": "generated"
                },
                "category": {
                    "coding": [
                        {
                            "system": "http://hl7.org/fhir/observation-category",
                            "code": "vital-signs",
                            "display": "Vital Signs"
                        }
                    ],
                    "text": "Vital Signs"
                },
                "code": {
                    "coding": [
                        {
                            "system": "http://loinc.org",
                            "code": "55284-4",
                            "display": "Blood pressure systolic and diastolic"
                        }
                    ],
                    "text": "Blood pressure systolic and diastolic"
                },
                "effectiveDateTime": "2007-07-18",
                "status": "final",
                "subject": {
                    "reference": "Patient/smart-9995679"
                },
                "bodySite": {
                    "coding": [
                        {
                            "system": "http://snomed.info/sct",
                            "code": "368209003",
                            "display": "right arm"
                        }
                    ],
                    "text": "right arm"
                },
                "method": {
                    "coding": [
                        {
                            "system": "http://smarthealthit.org/terms/codes/BloodPressureMethod#",
                            "code": "machine",
                            "display": "machine"
                        }
                    ],
                    "text": "machine"
                },
                "encounter": {
                    "reference": "Encounter/smart-Encounter-3"
                },
                "component": [
                    {
                        "code": {
                            "coding": [
                                {
                                    "system": "http://loinc.org",
                                    "code": "8480-6",
                                    "display": "Systolic blood pressure"
                                }
                            ],
                            "text": "Systolic blood pressure"
                        },
                        "valueQuantity": {
                            "value": 116,
                            "system": "http://unitsofmeasure.org",
                            "code": "mm[Hg]"
                        }
                    },
                    {
                        "code": {
                            "coding": [
                                {
                                    "system": "http://loinc.org",
                                    "code": "8462-4",
                                    "display": "Diastolic blood pressure"
                                }
                            ],
                            "text": "Diastolic blood pressure"
                        },
                        "valueQuantity": {
                            "value": 64,
                            "system": "http://unitsofmeasure.org",
                            "code": "mm[Hg]"
                        }
                    }
                ],
                "meta": {
                    "tag": [
                        {
                            "system": "https://smarthealthit.org/tags",
                            "code": "smart-8-2017"
                        }
                    ]
                }
            },
            "request": {
                "method": "PUT",
                "url": "Observation/smart-Observation-3-bp"
            }
        },
        {
            "resource": {
                "resourceType": "Observation",
                "id": "smart-Observation-3-systolic",
                "text": {
                    "div": "<div>2007-07-18: Systolic blood pressure = 116 mm[Hg]</div>",
                    "status": "generated"
                },
                "category": {
                    "coding": [
                        {
                            "system": "http://hl7.org/fhir/observation-category",
                            "code": "vital-signs",
                            "display": "Vital Signs"
                        }
                    ],
                    "text": "Vital Signs"
                },
                "code": {
                    "coding": [
                        {
                            "system": "http://loinc.org",
                            "code": "8480-6",
                            "display": "Systolic blood pressure"
                        }
                    ],
                    "text": "Systolic blood pressure"
                },
                "valueQuantity": {
                    "value": 116,
                    "system": "http://unitsofmeasure.org",
                    "code": "mm[Hg]"
                },
                "effectiveDateTime": "2007-07-18",
                "status": "final",
                "subject": {
                    "reference": "Patient/smart-9995679"
                },
                "meta": {
                    "tag": [
                        {
                            "system": "https://smarthealthit.org/tags",
                            "code": "smart-8-2017"
                        }
                    ]
                }
            },
            "request": {
                "method": "PUT",
                "url": "Observation/smart-Observation-3-systolic"
            }
        },
        {
            "resource": {
                "resourceType": "Observation",
                "id": "smart-Observation-3-diastolic",
                "text": {
                    "div": "<div>2007-07-18: Diastolic blood pressure = 64 mm[Hg]</div>",
                    "status": "generated"
                },
                "category": {
                    "coding": [
                        {
                            "system": "http://hl7.org/fhir/observation-category",
                            "code": "vital-signs",
                            "display": "Vital Signs"
                        }
                    ],
                    "text": "Vital Signs"
                },
                "code": {
                    "coding": [
                        {
                            "system": "http://loinc.org",
                            "code": "8462-4",
                            "display": "Diastolic blood pressure"
                        }
                    ],
                    "text": "Diastolic blood pressure"
                },
                "valueQuantity": {
                    "value": 64,
                    "system": "http://unitsofmeasure.org",
                    "code": "mm[Hg]"
                },
                "effectiveDateTime": "2007-07-18",
                "status": "final",
                "subject": {
                    "reference": "Patient/smart-9995679"
                },
                "meta": {
                    "tag": [
                        {
                            "system": "https://smarthealthit.org/tags",
                            "code": "smart-8-2017"
                        }
                    ]
                }
            },
            "request": {
                "method": "PUT",
                "url": "Observation/smart-Observation-3-diastolic"
            }
        },
        {
            "resource": {
                "resourceType": "Observation",
                "id": "smart-Observation-4-bp",
                "extension": [
                    {
                        "url": "http://fhir-registry.smarthealthit.org/StructureDefinition/vital-signs#position",
                        "valueCodeableConcept": {
                            "coding": [
                                {
                                    "system": "http://snomed.info/sct",
                                    "code": "40199007",
                                    "display": "supine"
                                }
                            ],
                            "text": "supine"
                        }
                    }
                ],
                "text": {
                    "div": "<div>2008-01-16: Blood pressure 120/58 mmHg</div>",
                    "status": "generated"
                },
                "category": {
                    "coding": [
                        {
                            "system": "http://hl7.org/fhir/observation-category",
                            "code": "vital-signs",
                            "display": "Vital Signs"
                        }
                    ],
                    "text": "Vital Signs"
                },
                "code": {
                    "coding": [
                        {
                            "system": "http://loinc.org",
                            "code": "55284-4",
                            "display": "Blood pressure systolic and diastolic"
                        }
                    ],
                    "text": "Blood pressure systolic and diastolic"
                },
                "effectiveDateTime": "2008-01-16",
                "status": "final",
                "subject": {
                    "reference": "Patient/smart-9995679"
                },
                "bodySite": {
                    "coding": [
                        {
                            "system": "http://snomed.info/sct",
                            "code": "368209003",
                            "display": "right arm"
                        }
                    ],
                    "text": "right arm"
                },
                "method": {
                    "coding": [
                        {
                            "system": "http://smarthealthit.org/terms/codes/BloodPressureMethod#",
                            "code": "machine",
                            "display": "machine"
                        }
                    ],
                    "text": "machine"
                },
                "encounter": {
                    "reference": "Encounter/smart-Encounter-4"
                },
                "component": [
                    {
                        "code": {
                            "coding": [
                                {
                                    "system": "http://loinc.org",
                                    "code": "8480-6",
                                    "display": "Systolic blood pressure"
                                }
                            ],
                            "text": "Systolic blood pressure"
                        },
                        "valueQuantity": {
                            "value": 120,
                            "system": "http://unitsofmeasure.org",
                            "code": "mm[Hg]"
                        }
                    },
                    {
                        "code": {
                            "coding": [
                                {
                                    "system": "http://loinc.org",
                                    "code": "8462-4",
                                    "display": "Diastolic blood pressure"
                                }
                            ],
                            "text": "Diastolic blood pressure"
                        },
                        "valueQuantity": {
                            "value": 58,
                            "system": "http://unitsofmeasure.org",
                            "code": "mm[Hg]"
                        }
                    }
                ],
                "meta": {
                    "tag": [
                        {
                            "system": "https://smarthealthit.org/tags",
                            "code": "smart-8-2017"
                        }
                    ]
                }
            },
            "request": {
                "method": "PUT",
                "url": "Observation/smart-Observation-4-bp"
            }
        },
        {
            "resource": {
                "resourceType": "Observation",
                "id": "smart-Observation-4-systolic",
                "text": {
                    "div": "<div>2008-01-16: Systolic blood pressure = 120 mm[Hg]</div>",
                    "status": "generated"
                },
                "category": {
                    "coding": [
                        {
                            "system": "http://hl7.org/fhir/observation-category",
                            "code": "vital-signs",
                            "display": "Vital Signs"
                        }
                    ],
                    "text": "Vital Signs"
                },
                "code": {
                    "coding": [
                        {
                            "system": "http://loinc.org",
                            "code": "8480-6",
                            "display": "Systolic blood pressure"
                        }
                    ],
                    "text": "Systolic blood pressure"
                },
                "valueQuantity": {
                    "value": 120,
                    "system": "http://unitsofmeasure.org",
                    "code": "mm[Hg]"
                },
                "effectiveDateTime": "2008-01-16",
                "status": "final",
                "subject": {
                    "reference": "Patient/smart-9995679"
                },
                "meta": {
                    "tag": [
                        {
                            "system": "https://smarthealthit.org/tags",
                            "code": "smart-8-2017"
                        }
                    ]
                }
            },
            "request": {
                "method": "PUT",
                "url": "Observation/smart-Observation-4-systolic"
            }
        },
        {
            "resource": {
                "resourceType": "Observation",
                "id": "smart-Observation-4-diastolic",
                "text": {
                    "div": "<div>2008-01-16: Diastolic blood pressure = 58 mm[Hg]</div>",
                    "status": "generated"
                },
                "category": {
                    "coding": [
                        {
                            "system": "http://hl7.org/fhir/observation-category",
                            "code": "vital-signs",
                            "display": "Vital Signs"
                        }
                    ],
                    "text": "Vital Signs"
                },
                "code": {
                    "coding": [
                        {
                            "system": "http://loinc.org",
                            "code": "8462-4",
                            "display": "Diastolic blood pressure"
                        }
                    ],
                    "text": "Diastolic blood pressure"
                },
                "valueQuantity": {
                    "value": 58,
                    "system": "http://unitsofmeasure.org",
                    "code": "mm[Hg]"
                },
                "effectiveDateTime": "2008-01-16",
                "status": "final",
                "subject": {
                    "reference": "Patient/smart-9995679"
                },
                "meta": {
                    "tag": [
                        {
                            "system": "https://smarthealthit.org/tags",
                            "code": "smart-8-2017"
                        }
                    ]
                }
            },
            "request": {
                "method": "PUT",
                "url": "Observation/smart-Observation-4-diastolic"
            }
        },
        {
            "resource": {
                "resourceType": "Observation",
                "id": "smart-Observation-5-bp",
                "extension": [
                    {
                        "url": "http://fhir-registry.smarthealthit.org/StructureDefinition/vital-signs#position",
                        "valueCodeableConcept": {
                            "coding": [
                                {
                                    "system": "http://snomed.info/sct",
                                    "code": "33586001",
                                    "display": "sitting"
                                }
                            ],
                            "text": "sitting"
                        }
                    }
                ],
                "text": {
                    "div": "<div>2008-06-25: Blood pressure 121/73 mmHg</div>",
                    "status": "generated"
                },
                "category": {
                    "coding": [
                        {
                            "system": "http://hl7.org/fhir/observation-category",
                            "code": "vital-signs",
                            "display": "Vital Signs"
                        }
                    ],
                    "text": "Vital Signs"
                },
                "code": {
                    "coding": [
                        {
                            "system": "http://loinc.org",
                            "code": "55284-4",
                            "display": "Blood pressure systolic and diastolic"
                        }
                    ],
                    "text": "Blood pressure systolic and diastolic"
                },
                "effectiveDateTime": "2008-06-25",
                "status": "final",
                "subject": {
                    "reference": "Patient/smart-9995679"
                },
                "bodySite": {
                    "coding": [
                        {
                            "system": "http://snomed.info/sct",
                            "code": "368208006",
                            "display": "left arm"
                        }
                    ],
                    "text": "left arm"
                },
                "method": {
                    "coding": [
                        {
                            "system": "http://smarthealthit.org/terms/codes/BloodPressureMethod#",
                            "code": "machine",
                            "display": "machine"
                        }
                    ],
                    "text": "machine"
                },
                "encounter": {
                    "reference": "Encounter/smart-Encounter-5"
                },
                "component": [
                    {
                        "code": {
                            "coding": [
                                {
                                    "system": "http://loinc.org",
                                    "code": "8480-6",
                                    "display": "Systolic blood pressure"
                                }
                            ],
                            "text": "Systolic blood pressure"
                        },
                        "valueQuantity": {
                            "value": 121,
                            "system": "http://unitsofmeasure.org",
                            "code": "mm[Hg]"
                        }
                    },
                    {
                        "code": {
                            "coding": [
                                {
                                    "system": "http://loinc.org",
                                    "code": "8462-4",
                                    "display": "Diastolic blood pressure"
                                }
                            ],
                            "text": "Diastolic blood pressure"
                        },
                        "valueQuantity": {
                            "value": 73,
                            "system": "http://unitsofmeasure.org",
                            "code": "mm[Hg]"
                        }
                    }
                ],
                "meta": {
                    "tag": [
                        {
                            "system": "https://smarthealthit.org/tags",
                            "code": "smart-8-2017"
                        }
                    ]
                }
            },
            "request": {
                "method": "PUT",
                "url": "Observation/smart-Observation-5-bp"
            }
        },
        {
            "resource": {
                "resourceType": "Observation",
                "id": "smart-Observation-5-systolic",
                "text": {
                    "div": "<div>2008-06-25: Systolic blood pressure = 121 mm[Hg]</div>",
                    "status": "generated"
                },
                "category": {
                    "coding": [
                        {
                            "system": "http://hl7.org/fhir/observation-category",
                            "code": "vital-signs",
                            "display": "Vital Signs"
                        }
                    ],
                    "text": "Vital Signs"
                },
                "code": {
                    "coding": [
                        {
                            "system": "http://loinc.org",
                            "code": "8480-6",
                            "display": "Systolic blood pressure"
                        }
                    ],
                    "text": "Systolic blood pressure"
                },
                "valueQuantity": {
                    "value": 121,
                    "system": "http://unitsofmeasure.org",
                    "code": "mm[Hg]"
                },
                "effectiveDateTime": "2008-06-25",
                "status": "final",
                "subject": {
                    "reference": "Patient/smart-9995679"
                },
                "meta": {
                    "tag": [
                        {
                            "system": "https://smarthealthit.org/tags",
                            "code": "smart-8-2017"
                        }
                    ]
                }
            },
            "request": {
                "method": "PUT",
                "url": "Observation/smart-Observation-5-systolic"
            }
        },
        {
            "resource": {
                "resourceType": "Observation",
                "id": "smart-Observation-5-diastolic",
                "text": {
                    "div": "<div>2008-06-25: Diastolic blood pressure = 73 mm[Hg]</div>",
                    "status": "generated"
                },
                "category": {
                    "coding": [
                        {
                            "system": "http://hl7.org/fhir/observation-category",
                            "code": "vital-signs",
                            "display": "Vital Signs"
                        }
                    ],
                    "text": "Vital Signs"
                },
                "code": {
                    "coding": [
                        {
                            "system": "http://loinc.org",
                            "code": "8462-4",
                            "display": "Diastolic blood pressure"
                        }
                    ],
                    "text": "Diastolic blood pressure"
                },
                "valueQuantity": {
                    "value": 73,
                    "system": "http://unitsofmeasure.org",
                    "code": "mm[Hg]"
                },
                "effectiveDateTime": "2008-06-25",
                "status": "final",
                "subject": {
                    "reference": "Patient/smart-9995679"
                },
                "meta": {
                    "tag": [
                        {
                            "system": "https://smarthealthit.org/tags",
                            "code": "smart-8-2017"
                        }
                    ]
                }
            },
            "request": {
                "method": "PUT",
                "url": "Observation/smart-Observation-5-diastolic"
            }
        },
        {
            "resource": {
                "resourceType": "Observation",
                "id": "smart-Observation-6-bp",
                "extension": [
                    {
                        "url": "http://fhir-registry.smarthealthit.org/StructureDefinition/vital-signs#position",
                        "valueCodeableConcept": {
                            "coding": [
                                {
                                    "system": "http://snomed.info/sct",
                                    "code": "33586001",
                                    "display": "sitting"
                                }
                            ],
                            "text": "sitting"
                        }
                    }
                ],
                "text": {
                    "div": "<div>2008-06-25: Blood pressure 119/70 mmHg</div>",
                    "status": "generated"
                },
                "category": {
                    "coding": [
                        {
                            "system": "http://hl7.org/fhir/observation-category",
                            "code": "vital-signs",
                            "display": "Vital Signs"
                        }
                    ],
                    "text": "Vital Signs"
                },
                "code": {
                    "coding": [
                        {
                            "system": "http://loinc.org",
                            "code": "55284-4",
                            "display": "Blood pressure systolic and diastolic"
                        }
                    ],
                    "text": "Blood pressure systolic and diastolic"
                },
                "effectiveDateTime": "2008-06-25",
                "status": "final",
                "subject": {
                    "reference": "Patient/smart-9995679"
                },
                "bodySite": {
                    "coding": [
                        {
                            "system": "http://snomed.info/sct",
                            "code": "368208006",
                            "display": "left arm"
                        }
                    ],
                    "text": "left arm"
                },
                "method": {
                    "coding": [
                        {
                            "system": "http://smarthealthit.org/terms/codes/BloodPressureMethod#",
                            "code": "machine",
                            "display": "machine"
                        }
                    ],
                    "text": "machine"
                },
                "encounter": {
                    "reference": "Encounter/smart-Encounter-5"
                },
                "component": [
                    {
                        "code": {
                            "coding": [
                                {
                                    "system": "http://loinc.org",
                                    "code": "8480-6",
                                    "display": "Systolic blood pressure"
                                }
                            ],
                            "text": "Systolic blood pressure"
                        },
                        "valueQuantity": {
                            "value": 119,
                            "system": "http://unitsofmeasure.org",
                            "code": "mm[Hg]"
                        }
                    },
                    {
                        "code": {
                            "coding": [
                                {
                                    "system": "http://loinc.org",
                                    "code": "8462-4",
                                    "display": "Diastolic blood pressure"
                                }
                            ],
                            "text": "Diastolic blood pressure"
                        },
                        "valueQuantity": {
                            "value": 70,
                            "system": "http://unitsofmeasure.org",
                            "code": "mm[Hg]"
                        }
                    }
                ],
                "meta": {
                    "tag": [
                        {
                            "system": "https://smarthealthit.org/tags",
                            "code": "smart-8-2017"
                        }
                    ]
                }
            },
            "request": {
                "method": "PUT",
                "url": "Observation/smart-Observation-6-bp"
            }
        },
        {
            "resource": {
                "resourceType": "Observation",
                "id": "smart-Observation-6-systolic",
                "text": {
                    "div": "<div>2008-06-25: Systolic blood pressure = 119 mm[Hg]</div>",
                    "status": "generated"
                },
                "category": {
                    "coding": [
                        {
                            "system": "http://hl7.org/fhir/observation-category",
                            "code": "vital-signs",
                            "display": "Vital Signs"
                        }
                    ],
                    "text": "Vital Signs"
                },
                "code": {
                    "coding": [
                        {
                            "system": "http://loinc.org",
                            "code": "8480-6",
                            "display": "Systolic blood pressure"
                        }
                    ],
                    "text": "Systolic blood pressure"
                },
                "valueQuantity": {
                    "value": 119,
                    "system": "http://unitsofmeasure.org",
                    "code": "mm[Hg]"
                },
                "effectiveDateTime": "2008-06-25",
                "status": "final",
                "subject": {
                    "reference": "Patient/smart-9995679"
                },
                "meta": {
                    "tag": [
                        {
                            "system": "https://smarthealthit.org/tags",
                            "code": "smart-8-2017"
                        }
                    ]
                }
            },
            "request": {
                "method": "PUT",
                "url": "Observation/smart-Observation-6-systolic"
            }
        },
        {
            "resource": {
                "resourceType": "Observation",
                "id": "smart-Observation-6-diastolic",
                "text": {
                    "div": "<div>2008-06-25: Diastolic blood pressure = 70 mm[Hg]</div>",
                    "status": "generated"
                },
                "category": {
                    "coding": [
                        {
                            "system": "http://hl7.org/fhir/observation-category",
                            "code": "vital-signs",
                            "display": "Vital Signs"
                        }
                    ],
                    "text": "Vital Signs"
                },
                "code": {
                    "coding": [
                        {
                            "system": "http://loinc.org",
                            "code": "8462-4",
                            "display": "Diastolic blood pressure"
                        }
                    ],
                    "text": "Diastolic blood pressure"
                },
                "valueQuantity": {
                    "value": 70,
                    "system": "http://unitsofmeasure.org",
                    "code": "mm[Hg]"
                },
                "effectiveDateTime": "2008-06-25",
                "status": "final",
                "subject": {
                    "reference": "Patient/smart-9995679"
                },
                "meta": {
                    "tag": [
                        {
                            "system": "https://smarthealthit.org/tags",
                            "code": "smart-8-2017"
                        }
                    ]
                }
            },
            "request": {
                "method": "PUT",
                "url": "Observation/smart-Observation-6-diastolic"
            }
        },
        {
            "resource": {
                "resourceType": "Observation",
                "id": "smart-Observation-7-bp",
                "text": {
                    "div": "<div>2009-06-10: Blood pressure 137/68 mmHg</div>",
                    "status": "generated"
                },
                "category": {
                    "coding": [
                        {
                            "system": "http://hl7.org/fhir/observation-category",
                            "code": "vital-signs",
                            "display": "Vital Signs"
                        }
                    ],
                    "text": "Vital Signs"
                },
                "code": {
                    "coding": [
                        {
                            "system": "http://loinc.org",
                            "code": "55284-4",
                            "display": "Blood pressure systolic and diastolic"
                        }
                    ],
                    "text": "Blood pressure systolic and diastolic"
                },
                "effectiveDateTime": "2009-06-10",
                "status": "final",
                "subject": {
                    "reference": "Patient/smart-9995679"
                },
                "bodySite": {
                    "coding": [
                        {
                            "system": "http://snomed.info/sct",
                            "code": "368209003",
                            "display": "right arm"
                        }
                    ],
                    "text": "right arm"
                },
                "encounter": {
                    "reference": "Encounter/smart-Encounter-7"
                },
                "component": [
                    {
                        "code": {
                            "coding": [
                                {
                                    "system": "http://loinc.org",
                                    "code": "8480-6",
                                    "display": "Systolic blood pressure"
                                }
                            ],
                            "text": "Systolic blood pressure"
                        },
                        "valueQuantity": {
                            "value": 137,
                            "system": "http://unitsofmeasure.org",
                            "code": "mm[Hg]"
                        }
                    },
                    {
                        "code": {
                            "coding": [
                                {
                                    "system": "http://loinc.org",
                                    "code": "8462-4",
                                    "display": "Diastolic blood pressure"
                                }
                            ],
                            "text": "Diastolic blood pressure"
                        },
                        "valueQuantity": {
                            "value": 68,
                            "system": "http://unitsofmeasure.org",
                            "code": "mm[Hg]"
                        }
                    }
                ],
                "meta": {
                    "tag": [
                        {
                            "system": "https://smarthealthit.org/tags",
                            "code": "smart-8-2017"
                        }
                    ]
                }
            },
            "request": {
                "method": "PUT",
                "url": "Observation/smart-Observation-7-bp"
            }
        },
        {
            "resource": {
                "resourceType": "Observation",
                "id": "smart-Observation-7-systolic",
                "text": {
                    "div": "<div>2009-06-10: Systolic blood pressure = 137 mm[Hg]</div>",
                    "status": "generated"
                },
                "category": {
                    "coding": [
                        {
                            "system": "http://hl7.org/fhir/observation-category",
                            "code": "vital-signs",
                            "display": "Vital Signs"
                        }
                    ],
                    "text": "Vital Signs"
                },
                "code": {
                    "coding": [
                        {
                            "system": "http://loinc.org",
                            "code": "8480-6",
                            "display": "Systolic blood pressure"
                        }
                    ],
                    "text": "Systolic blood pressure"
                },
                "valueQuantity": {
                    "value": 137,
                    "system": "http://unitsofmeasure.org",
                    "code": "mm[Hg]"
                },
                "effectiveDateTime": "2009-06-10",
                "status": "final",
                "subject": {
                    "reference": "Patient/smart-9995679"
                },
                "meta": {
                    "tag": [
                        {
                            "system": "https://smarthealthit.org/tags",
                            "code": "smart-8-2017"
                        }
                    ]
                }
            },
            "request": {
                "method": "PUT",
                "url": "Observation/smart-Observation-7-systolic"
            }
        },
        {
            "resource": {
                "resourceType": "Observation",
                "id": "smart-Observation-7-diastolic",
                "text": {
                    "div": "<div>2009-06-10: Diastolic blood pressure = 68 mm[Hg]</div>",
                    "status": "generated"
                },
                "category": {
                    "coding": [
                        {
                            "system": "http://hl7.org/fhir/observation-category",
                            "code": "vital-signs",
                            "display": "Vital Signs"
                        }
                    ],
                    "text": "Vital Signs"
                },
                "code": {
                    "coding": [
                        {
                            "system": "http://loinc.org",
                            "code": "8462-4",
                            "display": "Diastolic blood pressure"
                        }
                    ],
                    "text": "Diastolic blood pressure"
                },
                "valueQuantity": {
                    "value": 68,
                    "system": "http://unitsofmeasure.org",
                    "code": "mm[Hg]"
                },
                "effectiveDateTime": "2009-06-10",
                "status": "final",
                "subject": {
                    "reference": "Patient/smart-9995679"
                },
                "meta": {
                    "tag": [
                        {
                            "system": "https://smarthealthit.org/tags",
                            "code": "smart-8-2017"
                        }
                    ]
                }
            },
            "request": {
                "method": "PUT",
                "url": "Observation/smart-Observation-7-diastolic"
            }
        },
        {
            "resource": {
                "resourceType": "Observation",
                "id": "smart-Observation-8-bp",
                "extension": [
                    {
                        "url": "http://fhir-registry.smarthealthit.org/StructureDefinition/vital-signs#position",
                        "valueCodeableConcept": {
                            "coding": [
                                {
                                    "system": "http://snomed.info/sct",
                                    "code": "40199007",
                                    "display": "supine"
                                }
                            ],
                            "text": "supine"
                        }
                    }
                ],
                "text": {
                    "div": "<div>2009-06-10: Blood pressure 168/86 mmHg</div>",
                    "status": "generated"
                },
                "category": {
                    "coding": [
                        {
                            "system": "http://hl7.org/fhir/observation-category",
                            "code": "vital-signs",
                            "display": "Vital Signs"
                        }
                    ],
                    "text": "Vital Signs"
                },
                "code": {
                    "coding": [
                        {
                            "system": "http://loinc.org",
                            "code": "55284-4",
                            "display": "Blood pressure systolic and diastolic"
                        }
                    ],
                    "text": "Blood pressure systolic and diastolic"
                },
                "effectiveDateTime": "2009-06-10",
                "status": "final",
                "subject": {
                    "reference": "Patient/smart-9995679"
                },
                "bodySite": {
                    "coding": [
                        {
                            "system": "http://snomed.info/sct",
                            "code": "61396006",
                            "display": "left thigh"
                        }
                    ],
                    "text": "left thigh"
                },
                "method": {
                    "coding": [
                        {
                            "system": "http://smarthealthit.org/terms/codes/BloodPressureMethod#",
                            "code": "machine",
                            "display": "machine"
                        }
                    ],
                    "text": "machine"
                },
                "encounter": {
                    "reference": "Encounter/smart-Encounter-7"
                },
                "component": [
                    {
                        "code": {
                            "coding": [
                                {
                                    "system": "http://loinc.org",
                                    "code": "8480-6",
                                    "display": "Systolic blood pressure"
                                }
                            ],
                            "text": "Systolic blood pressure"
                        },
                        "valueQuantity": {
                            "value": 168,
                            "system": "http://unitsofmeasure.org",
                            "code": "mm[Hg]"
                        }
                    },
                    {
                        "code": {
                            "coding": [
                                {
                                    "system": "http://loinc.org",
                                    "code": "8462-4",
                                    "display": "Diastolic blood pressure"
                                }
                            ],
                            "text": "Diastolic blood pressure"
                        },
                        "valueQuantity": {
                            "value": 86,
                            "system": "http://unitsofmeasure.org",
                            "code": "mm[Hg]"
                        }
                    }
                ],
                "meta": {
                    "tag": [
                        {
                            "system": "https://smarthealthit.org/tags",
                            "code": "smart-8-2017"
                        }
                    ]
                }
            },
            "request": {
                "method": "PUT",
                "url": "Observation/smart-Observation-8-bp"
            }
        },
        {
            "resource": {
                "resourceType": "Observation",
                "id": "smart-Observation-8-systolic",
                "text": {
                    "div": "<div>2009-06-10: Systolic blood pressure = 168 mm[Hg]</div>",
                    "status": "generated"
                },
                "category": {
                    "coding": [
                        {
                            "system": "http://hl7.org/fhir/observation-category",
                            "code": "vital-signs",
                            "display": "Vital Signs"
                        }
                    ],
                    "text": "Vital Signs"
                },
                "code": {
                    "coding": [
                        {
                            "system": "http://loinc.org",
                            "code": "8480-6",
                            "display": "Systolic blood pressure"
                        }
                    ],
                    "text": "Systolic blood pressure"
                },
                "valueQuantity": {
                    "value": 168,
                    "system": "http://unitsofmeasure.org",
                    "code": "mm[Hg]"
                },
                "effectiveDateTime": "2009-06-10",
                "status": "final",
                "subject": {
                    "reference": "Patient/smart-9995679"
                },
                "meta": {
                    "tag": [
                        {
                            "system": "https://smarthealthit.org/tags",
                            "code": "smart-8-2017"
                        }
                    ]
                }
            },
            "request": {
                "method": "PUT",
                "url": "Observation/smart-Observation-8-systolic"
            }
        },
        {
            "resource": {
                "resourceType": "Observation",
                "id": "smart-Observation-8-diastolic",
                "text": {
                    "div": "<div>2009-06-10: Diastolic blood pressure = 86 mm[Hg]</div>",
                    "status": "generated"
                },
                "category": {
                    "coding": [
                        {
                            "system": "http://hl7.org/fhir/observation-category",
                            "code": "vital-signs",
                            "display": "Vital Signs"
                        }
                    ],
                    "text": "Vital Signs"
                },
                "code": {
                    "coding": [
                        {
                            "system": "http://loinc.org",
                            "code": "8462-4",
                            "display": "Diastolic blood pressure"
                        }
                    ],
                    "text": "Diastolic blood pressure"
                },
                "valueQuantity": {
                    "value": 86,
                    "system": "http://unitsofmeasure.org",
                    "code": "mm[Hg]"
                },
                "effectiveDateTime": "2009-06-10",
                "status": "final",
                "subject": {
                    "reference": "Patient/smart-9995679"
                },
                "meta": {
                    "tag": [
                        {
                            "system": "https://smarthealthit.org/tags",
                            "code": "smart-8-2017"
                        }
                    ]
                }
            },
            "request": {
                "method": "PUT",
                "url": "Observation/smart-Observation-8-diastolic"
            }
        },
        {
            "resource": {
                "resourceType": "Observation",
                "id": "smart-Observation-9-bp",
                "extension": [
                    {
                        "url": "http://fhir-registry.smarthealthit.org/StructureDefinition/vital-signs#position",
                        "valueCodeableConcept": {
                            "coding": [
                                {
                                    "system": "http://snomed.info/sct",
                                    "code": "40199007",
                                    "display": "supine"
                                }
                            ],
                            "text": "supine"
                        }
                    }
                ],
                "text": {
                    "div": "<div>2009-12-23: Blood pressure 122/66 mmHg</div>",
                    "status": "generated"
                },
                "category": {
                    "coding": [
                        {
                            "system": "http://hl7.org/fhir/observation-category",
                            "code": "vital-signs",
                            "display": "Vital Signs"
                        }
                    ],
                    "text": "Vital Signs"
                },
                "code": {
                    "coding": [
                        {
                            "system": "http://loinc.org",
                            "code": "55284-4",
                            "display": "Blood pressure systolic and diastolic"
                        }
                    ],
                    "text": "Blood pressure systolic and diastolic"
                },
                "effectiveDateTime": "2009-12-23",
                "status": "final",
                "subject": {
                    "reference": "Patient/smart-9995679"
                },
                "bodySite": {
                    "coding": [
                        {
                            "system": "http://snomed.info/sct",
                            "code": "368208006",
                            "display": "left arm"
                        }
                    ],
                    "text": "left arm"
                },
                "method": {
                    "coding": [
                        {
                            "system": "http://smarthealthit.org/terms/codes/BloodPressureMethod#",
                            "code": "machine",
                            "display": "machine"
                        }
                    ],
                    "text": "machine"
                },
                "encounter": {
                    "reference": "Encounter/smart-Encounter-9"
                },
                "component": [
                    {
                        "code": {
                            "coding": [
                                {
                                    "system": "http://loinc.org",
                                    "code": "8480-6",
                                    "display": "Systolic blood pressure"
                                }
                            ],
                            "text": "Systolic blood pressure"
                        },
                        "valueQuantity": {
                            "value": 122,
                            "system": "http://unitsofmeasure.org",
                            "code": "mm[Hg]"
                        }
                    },
                    {
                        "code": {
                            "coding": [
                                {
                                    "system": "http://loinc.org",
                                    "code": "8462-4",
                                    "display": "Diastolic blood pressure"
                                }
                            ],
                            "text": "Diastolic blood pressure"
                        },
                        "valueQuantity": {
                            "value": 66,
                            "system": "http://unitsofmeasure.org",
                            "code": "mm[Hg]"
                        }
                    }
                ],
                "meta": {
                    "tag": [
                        {
                            "system": "https://smarthealthit.org/tags",
                            "code": "smart-8-2017"
                        }
                    ]
                }
            },
            "request": {
                "method": "PUT",
                "url": "Observation/smart-Observation-9-bp"
            }
        },
        {
            "resource": {
                "resourceType": "Observation",
                "id": "smart-Observation-9-systolic",
                "text": {
                    "div": "<div>2009-12-23: Systolic blood pressure = 122 mm[Hg]</div>",
                    "status": "generated"
                },
                "category": {
                    "coding": [
                        {
                            "system": "http://hl7.org/fhir/observation-category",
                            "code": "vital-signs",
                            "display": "Vital Signs"
                        }
                    ],
                    "text": "Vital Signs"
                },
                "code": {
                    "coding": [
                        {
                            "system": "http://loinc.org",
                            "code": "8480-6",
                            "display": "Systolic blood pressure"
                        }
                    ],
                    "text": "Systolic blood pressure"
                },
                "valueQuantity": {
                    "value": 122,
                    "system": "http://unitsofmeasure.org",
                    "code": "mm[Hg]"
                },
                "effectiveDateTime": "2009-12-23",
                "status": "final",
                "subject": {
                    "reference": "Patient/smart-9995679"
                },
                "meta": {
                    "tag": [
                        {
                            "system": "https://smarthealthit.org/tags",
                            "code": "smart-8-2017"
                        }
                    ]
                }
            },
            "request": {
                "method": "PUT",
                "url": "Observation/smart-Observation-9-systolic"
            }
        },
        {
            "resource": {
                "resourceType": "Observation",
                "id": "smart-Observation-9-diastolic",
                "text": {
                    "div": "<div>2009-12-23: Diastolic blood pressure = 66 mm[Hg]</div>",
                    "status": "generated"
                },
                "category": {
                    "coding": [
                        {
                            "system": "http://hl7.org/fhir/observation-category",
                            "code": "vital-signs",
                            "display": "Vital Signs"
                        }
                    ],
                    "text": "Vital Signs"
                },
                "code": {
                    "coding": [
                        {
                            "system": "http://loinc.org",
                            "code": "8462-4",
                            "display": "Diastolic blood pressure"
                        }
                    ],
                    "text": "Diastolic blood pressure"
                },
                "valueQuantity": {
                    "value": 66,
                    "system": "http://unitsofmeasure.org",
                    "code": "mm[Hg]"
                },
                "effectiveDateTime": "2009-12-23",
                "status": "final",
                "subject": {
                    "reference": "Patient/smart-9995679"
                },
                "meta": {
                    "tag": [
                        {
                            "system": "https://smarthealthit.org/tags",
                            "code": "smart-8-2017"
                        }
                    ]
                }
            },
            "request": {
                "method": "PUT",
                "url": "Observation/smart-Observation-9-diastolic"
            }
        },
        {
            "resource": {
                "resourceType": "Observation",
                "id": "smart-Observation-10-bp",
                "extension": [
                    {
                        "url": "http://fhir-registry.smarthealthit.org/StructureDefinition/vital-signs#position",
                        "valueCodeableConcept": {
                            "coding": [
                                {
                                    "system": "http://snomed.info/sct",
                                    "code": "40199007",
                                    "display": "supine"
                                }
                            ],
                            "text": "supine"
                        }
                    }
                ],
                "text": {
                    "div": "<div>2009-12-23: Blood pressure 121/65 mmHg</div>",
                    "status": "generated"
                },
                "category": {
                    "coding": [
                        {
                            "system": "http://hl7.org/fhir/observation-category",
                            "code": "vital-signs",
                            "display": "Vital Signs"
                        }
                    ],
                    "text": "Vital Signs"
                },
                "code": {
                    "coding": [
                        {
                            "system": "http://loinc.org",
                            "code": "55284-4",
                            "display": "Blood pressure systolic and diastolic"
                        }
                    ],
                    "text": "Blood pressure systolic and diastolic"
                },
                "effectiveDateTime": "2009-12-23",
                "status": "final",
                "subject": {
                    "reference": "Patient/smart-9995679"
                },
                "bodySite": {
                    "coding": [
                        {
                            "system": "http://snomed.info/sct",
                            "code": "368209003",
                            "display": "right arm"
                        }
                    ],
                    "text": "right arm"
                },
                "method": {
                    "coding": [
                        {
                            "system": "http://smarthealthit.org/terms/codes/BloodPressureMethod#",
                            "code": "machine",
                            "display": "machine"
                        }
                    ],
                    "text": "machine"
                },
                "encounter": {
                    "reference": "Encounter/smart-Encounter-9"
                },
                "component": [
                    {
                        "code": {
                            "coding": [
                                {
                                    "system": "http://loinc.org",
                                    "code": "8480-6",
                                    "display": "Systolic blood pressure"
                                }
                            ],
                            "text": "Systolic blood pressure"
                        },
                        "valueQuantity": {
                            "value": 121,
                            "system": "http://unitsofmeasure.org",
                            "code": "mm[Hg]"
                        }
                    },
                    {
                        "code": {
                            "coding": [
                                {
                                    "system": "http://loinc.org",
                                    "code": "8462-4",
                                    "display": "Diastolic blood pressure"
                                }
                            ],
                            "text": "Diastolic blood pressure"
                        },
                        "valueQuantity": {
                            "value": 65,
                            "system": "http://unitsofmeasure.org",
                            "code": "mm[Hg]"
                        }
                    }
                ],
                "meta": {
                    "tag": [
                        {
                            "system": "https://smarthealthit.org/tags",
                            "code": "smart-8-2017"
                        }
                    ]
                }
            },
            "request": {
                "method": "PUT",
                "url": "Observation/smart-Observation-10-bp"
            }
        },
        {
            "resource": {
                "resourceType": "Observation",
                "id": "smart-Observation-10-systolic",
                "text": {
                    "div": "<div>2009-12-23: Systolic blood pressure = 121 mm[Hg]</div>",
                    "status": "generated"
                },
                "category": {
                    "coding": [
                        {
                            "system": "http://hl7.org/fhir/observation-category",
                            "code": "vital-signs",
                            "display": "Vital Signs"
                        }
                    ],
                    "text": "Vital Signs"
                },
                "code": {
                    "coding": [
                        {
                            "system": "http://loinc.org",
                            "code": "8480-6",
                            "display": "Systolic blood pressure"
                        }
                    ],
                    "text": "Systolic blood pressure"
                },
                "valueQuantity": {
                    "value": 121,
                    "system": "http://unitsofmeasure.org",
                    "code": "mm[Hg]"
                },
                "effectiveDateTime": "2009-12-23",
                "status": "final",
                "subject": {
                    "reference": "Patient/smart-9995679"
                },
                "meta": {
                    "tag": [
                        {
                            "system": "https://smarthealthit.org/tags",
                            "code": "smart-8-2017"
                        }
                    ]
                }
            },
            "request": {
                "method": "PUT",
                "url": "Observation/smart-Observation-10-systolic"
            }
        },
        {
            "resource": {
                "resourceType": "Observation",
                "id": "smart-Observation-10-diastolic",
                "text": {
                    "div": "<div>2009-12-23: Diastolic blood pressure = 65 mm[Hg]</div>",
                    "status": "generated"
                },
                "category": {
                    "coding": [
                        {
                            "system": "http://hl7.org/fhir/observation-category",
                            "code": "vital-signs",
                            "display": "Vital Signs"
                        }
                    ],
                    "text": "Vital Signs"
                },
                "code": {
                    "coding": [
                        {
                            "system": "http://loinc.org",
                            "code": "8462-4",
                            "display": "Diastolic blood pressure"
                        }
                    ],
                    "text": "Diastolic blood pressure"
                },
                "valueQuantity": {
                    "value": 65,
                    "system": "http://unitsofmeasure.org",
                    "code": "mm[Hg]"
                },
                "effectiveDateTime": "2009-12-23",
                "status": "final",
                "subject": {
                    "reference": "Patient/smart-9995679"
                },
                "meta": {
                    "tag": [
                        {
                            "system": "https://smarthealthit.org/tags",
                            "code": "smart-8-2017"
                        }
                    ]
                }
            },
            "request": {
                "method": "PUT",
                "url": "Observation/smart-Observation-10-diastolic"
            }
        },
        {
            "resource": {
                "resourceType": "Observation",
                "id": "smart-Observation-11-bp",
                "extension": [
                    {
                        "url": "http://fhir-registry.smarthealthit.org/StructureDefinition/vital-signs#position",
                        "valueCodeableConcept": {
                            "coding": [
                                {
                                    "system": "http://snomed.info/sct",
                                    "code": "40199007",
                                    "display": "supine"
                                }
                            ],
                            "text": "supine"
                        }
                    }
                ],
                "text": {
                    "div": "<div>2009-12-23: Blood pressure 119/60 mmHg</div>",
                    "status": "generated"
                },
                "category": {
                    "coding": [
                        {
                            "system": "http://hl7.org/fhir/observation-category",
                            "code": "vital-signs",
                            "display": "Vital Signs"
                        }
                    ],
                    "text": "Vital Signs"
                },
                "code": {
                    "coding": [
                        {
                            "system": "http://loinc.org",
                            "code": "55284-4",
                            "display": "Blood pressure systolic and diastolic"
                        }
                    ],
                    "text": "Blood pressure systolic and diastolic"
                },
                "effectiveDateTime": "2009-12-23",
                "status": "final",
                "subject": {
                    "reference": "Patient/smart-9995679"
                },
                "bodySite": {
                    "coding": [
                        {
                            "system": "http://snomed.info/sct",
                            "code": "368209003",
                            "display": "right arm"
                        }
                    ],
                    "text": "right arm"
                },
                "method": {
                    "coding": [
                        {
                            "system": "http://smarthealthit.org/terms/codes/BloodPressureMethod#",
                            "code": "machine",
                            "display": "machine"
                        }
                    ],
                    "text": "machine"
                },
                "encounter": {
                    "reference": "Encounter/smart-Encounter-9"
                },
                "component": [
                    {
                        "code": {
                            "coding": [
                                {
                                    "system": "http://loinc.org",
                                    "code": "8480-6",
                                    "display": "Systolic blood pressure"
                                }
                            ],
                            "text": "Systolic blood pressure"
                        },
                        "valueQuantity": {
                            "value": 119,
                            "system": "http://unitsofmeasure.org",
                            "code": "mm[Hg]"
                        }
                    },
                    {
                        "code": {
                            "coding": [
                                {
                                    "system": "http://loinc.org",
                                    "code": "8462-4",
                                    "display": "Diastolic blood pressure"
                                }
                            ],
                            "text": "Diastolic blood pressure"
                        },
                        "valueQuantity": {
                            "value": 60,
                            "system": "http://unitsofmeasure.org",
                            "code": "mm[Hg]"
                        }
                    }
                ],
                "meta": {
                    "tag": [
                        {
                            "system": "https://smarthealthit.org/tags",
                            "code": "smart-8-2017"
                        }
                    ]
                }
            },
            "request": {
                "method": "PUT",
                "url": "Observation/smart-Observation-11-bp"
            }
        },
        {
            "resource": {
                "resourceType": "Observation",
                "id": "smart-Observation-11-systolic",
                "text": {
                    "div": "<div>2009-12-23: Systolic blood pressure = 119 mm[Hg]</div>",
                    "status": "generated"
                },
                "category": {
                    "coding": [
                        {
                            "system": "http://hl7.org/fhir/observation-category",
                            "code": "vital-signs",
                            "display": "Vital Signs"
                        }
                    ],
                    "text": "Vital Signs"
                },
                "code": {
                    "coding": [
                        {
                            "system": "http://loinc.org",
                            "code": "8480-6",
                            "display": "Systolic blood pressure"
                        }
                    ],
                    "text": "Systolic blood pressure"
                },
                "valueQuantity": {
                    "value": 119,
                    "system": "http://unitsofmeasure.org",
                    "code": "mm[Hg]"
                },
                "effectiveDateTime": "2009-12-23",
                "status": "final",
                "subject": {
                    "reference": "Patient/smart-9995679"
                },
                "meta": {
                    "tag": [
                        {
                            "system": "https://smarthealthit.org/tags",
                            "code": "smart-8-2017"
                        }
                    ]
                }
            },
            "request": {
                "method": "PUT",
                "url": "Observation/smart-Observation-11-systolic"
            }
        },
        {
            "resource": {
                "resourceType": "Observation",
                "id": "smart-Observation-11-diastolic",
                "text": {
                    "div": "<div>2009-12-23: Diastolic blood pressure = 60 mm[Hg]</div>",
                    "status": "generated"
                },
                "category": {
                    "coding": [
                        {
                            "system": "http://hl7.org/fhir/observation-category",
                            "code": "vital-signs",
                            "display": "Vital Signs"
                        }
                    ],
                    "text": "Vital Signs"
                },
                "code": {
                    "coding": [
                        {
                            "system": "http://loinc.org",
                            "code": "8462-4",
                            "display": "Diastolic blood pressure"
                        }
                    ],
                    "text": "Diastolic blood pressure"
                },
                "valueQuantity": {
                    "value": 60,
                    "system": "http://unitsofmeasure.org",
                    "code": "mm[Hg]"
                },
                "effectiveDateTime": "2009-12-23",
                "status": "final",
                "subject": {
                    "reference": "Patient/smart-9995679"
                },
                "meta": {
                    "tag": [
                        {
                            "system": "https://smarthealthit.org/tags",
                            "code": "smart-8-2017"
                        }
                    ]
                }
            },
            "request": {
                "method": "PUT",
                "url": "Observation/smart-Observation-11-diastolic"
            }
        },
        {
            "resource": {
                "resourceType": "Observation",
                "id": "smart-Observation-12-bp",
                "extension": [
                    {
                        "url": "http://fhir-registry.smarthealthit.org/StructureDefinition/vital-signs#position",
                        "valueCodeableConcept": {
                            "coding": [
                                {
                                    "system": "http://snomed.info/sct",
                                    "code": "40199007",
                                    "display": "supine"
                                }
                            ],
                            "text": "supine"
                        }
                    }
                ],
                "text": {
                    "div": "<div>2009-12-23: Blood pressure 121/57 mmHg</div>",
                    "status": "generated"
                },
                "category": {
                    "coding": [
                        {
                            "system": "http://hl7.org/fhir/observation-category",
                            "code": "vital-signs",
                            "display": "Vital Signs"
                        }
                    ],
                    "text": "Vital Signs"
                },
                "code": {
                    "coding": [
                        {
                            "system": "http://loinc.org",
                            "code": "55284-4",
                            "display": "Blood pressure systolic and diastolic"
                        }
                    ],
                    "text": "Blood pressure systolic and diastolic"
                },
                "effectiveDateTime": "2009-12-23",
                "status": "final",
                "subject": {
                    "reference": "Patient/smart-9995679"
                },
                "bodySite": {
                    "coding": [
                        {
                            "system": "http://snomed.info/sct",
                            "code": "368209003",
                            "display": "right arm"
                        }
                    ],
                    "text": "right arm"
                },
                "method": {
                    "coding": [
                        {
                            "system": "http://smarthealthit.org/terms/codes/BloodPressureMethod#",
                            "code": "machine",
                            "display": "machine"
                        }
                    ],
                    "text": "machine"
                },
                "encounter": {
                    "reference": "Encounter/smart-Encounter-9"
                },
                "component": [
                    {
                        "code": {
                            "coding": [
                                {
                                    "system": "http://loinc.org",
                                    "code": "8480-6",
                                    "display": "Systolic blood pressure"
                                }
                            ],
                            "text": "Systolic blood pressure"
                        },
                        "valueQuantity": {
                            "value": 121,
                            "system": "http://unitsofmeasure.org",
                            "code": "mm[Hg]"
                        }
                    },
                    {
                        "code": {
                            "coding": [
                                {
                                    "system": "http://loinc.org",
                                    "code": "8462-4",
                                    "display": "Diastolic blood pressure"
                                }
                            ],
                            "text": "Diastolic blood pressure"
                        },
                        "valueQuantity": {
                            "value": 57,
                            "system": "http://unitsofmeasure.org",
                            "code": "mm[Hg]"
                        }
                    }
                ],
                "meta": {
                    "tag": [
                        {
                            "system": "https://smarthealthit.org/tags",
                            "code": "smart-8-2017"
                        }
                    ]
                }
            },
            "request": {
                "method": "PUT",
                "url": "Observation/smart-Observation-12-bp"
            }
        },
        {
            "resource": {
                "resourceType": "Observation",
                "id": "smart-Observation-12-systolic",
                "text": {
                    "div": "<div>2009-12-23: Systolic blood pressure = 121 mm[Hg]</div>",
                    "status": "generated"
                },
                "category": {
                    "coding": [
                        {
                            "system": "http://hl7.org/fhir/observation-category",
                            "code": "vital-signs",
                            "display": "Vital Signs"
                        }
                    ],
                    "text": "Vital Signs"
                },
                "code": {
                    "coding": [
                        {
                            "system": "http://loinc.org",
                            "code": "8480-6",
                            "display": "Systolic blood pressure"
                        }
                    ],
                    "text": "Systolic blood pressure"
                },
                "valueQuantity": {
                    "value": 121,
                    "system": "http://unitsofmeasure.org",
                    "code": "mm[Hg]"
                },
                "effectiveDateTime": "2009-12-23",
                "status": "final",
                "subject": {
                    "reference": "Patient/smart-9995679"
                },
                "meta": {
                    "tag": [
                        {
                            "system": "https://smarthealthit.org/tags",
                            "code": "smart-8-2017"
                        }
                    ]
                }
            },
            "request": {
                "method": "PUT",
                "url": "Observation/smart-Observation-12-systolic"
            }
        },
        {
            "resource": {
                "resourceType": "Observation",
                "id": "smart-Observation-12-diastolic",
                "text": {
                    "div": "<div>2009-12-23: Diastolic blood pressure = 57 mm[Hg]</div>",
                    "status": "generated"
                },
                "category": {
                    "coding": [
                        {
                            "system": "http://hl7.org/fhir/observation-category",
                            "code": "vital-signs",
                            "display": "Vital Signs"
                        }
                    ],
                    "text": "Vital Signs"
                },
                "code": {
                    "coding": [
                        {
                            "system": "http://loinc.org",
                            "code": "8462-4",
                            "display": "Diastolic blood pressure"
                        }
                    ],
                    "text": "Diastolic blood pressure"
                },
                "valueQuantity": {
                    "value": 57,
                    "system": "http://unitsofmeasure.org",
                    "code": "mm[Hg]"
                },
                "effectiveDateTime": "2009-12-23",
                "status": "final",
                "subject": {
                    "reference": "Patient/smart-9995679"
                },
                "meta": {
                    "tag": [
                        {
                            "system": "https://smarthealthit.org/tags",
                            "code": "smart-8-2017"
                        }
                    ]
                }
            },
            "request": {
                "method": "PUT",
                "url": "Observation/smart-Observation-12-diastolic"
            }
        },
        {
            "resource": {
                "resourceType": "Observation",
                "id": "smart-Observation-13-bp",
                "extension": [
                    {
                        "url": "http://fhir-registry.smarthealthit.org/StructureDefinition/vital-signs#position",
                        "valueCodeableConcept": {
                            "coding": [
                                {
                                    "system": "http://snomed.info/sct",
                                    "code": "40199007",
                                    "display": "supine"
                                }
                            ],
                            "text": "supine"
                        }
                    }
                ],
                "text": {
                    "div": "<div>2009-12-23: Blood pressure 131/71 mmHg</div>",
                    "status": "generated"
                },
                "category": {
                    "coding": [
                        {
                            "system": "http://hl7.org/fhir/observation-category",
                            "code": "vital-signs",
                            "display": "Vital Signs"
                        }
                    ],
                    "text": "Vital Signs"
                },
                "code": {
                    "coding": [
                        {
                            "system": "http://loinc.org",
                            "code": "55284-4",
                            "display": "Blood pressure systolic and diastolic"
                        }
                    ],
                    "text": "Blood pressure systolic and diastolic"
                },
                "effectiveDateTime": "2009-12-23",
                "status": "final",
                "subject": {
                    "reference": "Patient/smart-9995679"
                },
                "bodySite": {
                    "coding": [
                        {
                            "system": "http://snomed.info/sct",
                            "code": "368209003",
                            "display": "right arm"
                        }
                    ],
                    "text": "right arm"
                },
                "method": {
                    "coding": [
                        {
                            "system": "http://smarthealthit.org/terms/codes/BloodPressureMethod#",
                            "code": "machine",
                            "display": "machine"
                        }
                    ],
                    "text": "machine"
                },
                "encounter": {
                    "reference": "Encounter/smart-Encounter-9"
                },
                "component": [
                    {
                        "code": {
                            "coding": [
                                {
                                    "system": "http://loinc.org",
                                    "code": "8480-6",
                                    "display": "Systolic blood pressure"
                                }
                            ],
                            "text": "Systolic blood pressure"
                        },
                        "valueQuantity": {
                            "value": 131,
                            "system": "http://unitsofmeasure.org",
                            "code": "mm[Hg]"
                        }
                    },
                    {
                        "code": {
                            "coding": [
                                {
                                    "system": "http://loinc.org",
                                    "code": "8462-4",
                                    "display": "Diastolic blood pressure"
                                }
                            ],
                            "text": "Diastolic blood pressure"
                        },
                        "valueQuantity": {
                            "value": 71,
                            "system": "http://unitsofmeasure.org",
                            "code": "mm[Hg]"
                        }
                    }
                ],
                "meta": {
                    "tag": [
                        {
                            "system": "https://smarthealthit.org/tags",
                            "code": "smart-8-2017"
                        }
                    ]
                }
            },
            "request": {
                "method": "PUT",
                "url": "Observation/smart-Observation-13-bp"
            }
        },
        {
            "resource": {
                "resourceType": "Observation",
                "id": "smart-Observation-13-systolic",
                "text": {
                    "div": "<div>2009-12-23: Systolic blood pressure = 131 mm[Hg]</div>",
                    "status": "generated"
                },
                "category": {
                    "coding": [
                        {
                            "system": "http://hl7.org/fhir/observation-category",
                            "code": "vital-signs",
                            "display": "Vital Signs"
                        }
                    ],
                    "text": "Vital Signs"
                },
                "code": {
                    "coding": [
                        {
                            "system": "http://loinc.org",
                            "code": "8480-6",
                            "display": "Systolic blood pressure"
                        }
                    ],
                    "text": "Systolic blood pressure"
                },
                "valueQuantity": {
                    "value": 131,
                    "system": "http://unitsofmeasure.org",
                    "code": "mm[Hg]"
                },
                "effectiveDateTime": "2009-12-23",
                "status": "final",
                "subject": {
                    "reference": "Patient/smart-9995679"
                },
                "meta": {
                    "tag": [
                        {
                            "system": "https://smarthealthit.org/tags",
                            "code": "smart-8-2017"
                        }
                    ]
                }
            },
            "request": {
                "method": "PUT",
                "url": "Observation/smart-Observation-13-systolic"
            }
        },
        {
            "resource": {
                "resourceType": "Observation",
                "id": "smart-Observation-13-diastolic",
                "text": {
                    "div": "<div>2009-12-23: Diastolic blood pressure = 71 mm[Hg]</div>",
                    "status": "generated"
                },
                "category": {
                    "coding": [
                        {
                            "system": "http://hl7.org/fhir/observation-category",
                            "code": "vital-signs",
                            "display": "Vital Signs"
                        }
                    ],
                    "text": "Vital Signs"
                },
                "code": {
                    "coding": [
                        {
                            "system": "http://loinc.org",
                            "code": "8462-4",
                            "display": "Diastolic blood pressure"
                        }
                    ],
                    "text": "Diastolic blood pressure"
                },
                "valueQuantity": {
                    "value": 71,
                    "system": "http://unitsofmeasure.org",
                    "code": "mm[Hg]"
                },
                "effectiveDateTime": "2009-12-23",
                "status": "final",
                "subject": {
                    "reference": "Patient/smart-9995679"
                },
                "meta": {
                    "tag": [
                        {
                            "system": "https://smarthealthit.org/tags",
                            "code": "smart-8-2017"
                        }
                    ]
                }
            },
            "request": {
                "method": "PUT",
                "url": "Observation/smart-Observation-13-diastolic"
            }
        },
        {
            "resource": {
                "resourceType": "Observation",
                "id": "smart-Observation-14-bp",
                "extension": [
                    {
                        "url": "http://fhir-registry.smarthealthit.org/StructureDefinition/vital-signs#position",
                        "valueCodeableConcept": {
                            "coding": [
                                {
                                    "system": "http://snomed.info/sct",
                                    "code": "40199007",
                                    "display": "supine"
                                }
                            ],
                            "text": "supine"
                        }
                    }
                ],
                "text": {
                    "div": "<div>2009-12-23: Blood pressure 123/58 mmHg</div>",
                    "status": "generated"
                },
                "category": {
                    "coding": [
                        {
                            "system": "http://hl7.org/fhir/observation-category",
                            "code": "vital-signs",
                            "display": "Vital Signs"
                        }
                    ],
                    "text": "Vital Signs"
                },
                "code": {
                    "coding": [
                        {
                            "system": "http://loinc.org",
                            "code": "55284-4",
                            "display": "Blood pressure systolic and diastolic"
                        }
                    ],
                    "text": "Blood pressure systolic and diastolic"
                },
                "effectiveDateTime": "2009-12-23",
                "status": "final",
                "subject": {
                    "reference": "Patient/smart-9995679"
                },
                "bodySite": {
                    "coding": [
                        {
                            "system": "http://snomed.info/sct",
                            "code": "368209003",
                            "display": "right arm"
                        }
                    ],
                    "text": "right arm"
                },
                "method": {
                    "coding": [
                        {
                            "system": "http://smarthealthit.org/terms/codes/BloodPressureMethod#",
                            "code": "machine",
                            "display": "machine"
                        }
                    ],
                    "text": "machine"
                },
                "encounter": {
                    "reference": "Encounter/smart-Encounter-9"
                },
                "component": [
                    {
                        "code": {
                            "coding": [
                                {
                                    "system": "http://loinc.org",
                                    "code": "8480-6",
                                    "display": "Systolic blood pressure"
                                }
                            ],
                            "text": "Systolic blood pressure"
                        },
                        "valueQuantity": {
                            "value": 123,
                            "system": "http://unitsofmeasure.org",
                            "code": "mm[Hg]"
                        }
                    },
                    {
                        "code": {
                            "coding": [
                                {
                                    "system": "http://loinc.org",
                                    "code": "8462-4",
                                    "display": "Diastolic blood pressure"
                                }
                            ],
                            "text": "Diastolic blood pressure"
                        },
                        "valueQuantity": {
                            "value": 58,
                            "system": "http://unitsofmeasure.org",
                            "code": "mm[Hg]"
                        }
                    }
                ],
                "meta": {
                    "tag": [
                        {
                            "system": "https://smarthealthit.org/tags",
                            "code": "smart-8-2017"
                        }
                    ]
                }
            },
            "request": {
                "method": "PUT",
                "url": "Observation/smart-Observation-14-bp"
            }
        },
        {
            "resource": {
                "resourceType": "Observation",
                "id": "smart-Observation-14-systolic",
                "text": {
                    "div": "<div>2009-12-23: Systolic blood pressure = 123 mm[Hg]</div>",
                    "status": "generated"
                },
                "category": {
                    "coding": [
                        {
                            "system": "http://hl7.org/fhir/observation-category",
                            "code": "vital-signs",
                            "display": "Vital Signs"
                        }
                    ],
                    "text": "Vital Signs"
                },
                "code": {
                    "coding": [
                        {
                            "system": "http://loinc.org",
                            "code": "8480-6",
                            "display": "Systolic blood pressure"
                        }
                    ],
                    "text": "Systolic blood pressure"
                },
                "valueQuantity": {
                    "value": 123,
                    "system": "http://unitsofmeasure.org",
                    "code": "mm[Hg]"
                },
                "effectiveDateTime": "2009-12-23",
                "status": "final",
                "subject": {
                    "reference": "Patient/smart-9995679"
                },
                "meta": {
                    "tag": [
                        {
                            "system": "https://smarthealthit.org/tags",
                            "code": "smart-8-2017"
                        }
                    ]
                }
            },
            "request": {
                "method": "PUT",
                "url": "Observation/smart-Observation-14-systolic"
            }
        },
        {
            "resource": {
                "resourceType": "Observation",
                "id": "smart-Observation-14-diastolic",
                "text": {
                    "div": "<div>2009-12-23: Diastolic blood pressure = 58 mm[Hg]</div>",
                    "status": "generated"
                },
                "category": {
                    "coding": [
                        {
                            "system": "http://hl7.org/fhir/observation-category",
                            "code": "vital-signs",
                            "display": "Vital Signs"
                        }
                    ],
                    "text": "Vital Signs"
                },
                "code": {
                    "coding": [
                        {
                            "system": "http://loinc.org",
                            "code": "8462-4",
                            "display": "Diastolic blood pressure"
                        }
                    ],
                    "text": "Diastolic blood pressure"
                },
                "valueQuantity": {
                    "value": 58,
                    "system": "http://unitsofmeasure.org",
                    "code": "mm[Hg]"
                },
                "effectiveDateTime": "2009-12-23",
                "status": "final",
                "subject": {
                    "reference": "Patient/smart-9995679"
                },
                "meta": {
                    "tag": [
                        {
                            "system": "https://smarthealthit.org/tags",
                            "code": "smart-8-2017"
                        }
                    ]
                }
            },
            "request": {
                "method": "PUT",
                "url": "Observation/smart-Observation-14-diastolic"
            }
        },
        {
            "resource": {
                "resourceType": "Observation",
                "id": "smart-Observation-15-bp",
                "extension": [
                    {
                        "url": "http://fhir-registry.smarthealthit.org/StructureDefinition/vital-signs#position",
                        "valueCodeableConcept": {
                            "coding": [
                                {
                                    "system": "http://snomed.info/sct",
                                    "code": "33586001",
                                    "display": "sitting"
                                }
                            ],
                            "text": "sitting"
                        }
                    }
                ],
                "text": {
                    "div": "<div>2010-12-22: Blood pressure 123/59 mmHg</div>",
                    "status": "generated"
                },
                "category": {
                    "coding": [
                        {
                            "system": "http://hl7.org/fhir/observation-category",
                            "code": "vital-signs",
                            "display": "Vital Signs"
                        }
                    ],
                    "text": "Vital Signs"
                },
                "code": {
                    "coding": [
                        {
                            "system": "http://loinc.org",
                            "code": "55284-4",
                            "display": "Blood pressure systolic and diastolic"
                        }
                    ],
                    "text": "Blood pressure systolic and diastolic"
                },
                "effectiveDateTime": "2010-12-22",
                "status": "final",
                "subject": {
                    "reference": "Patient/smart-9995679"
                },
                "bodySite": {
                    "coding": [
                        {
                            "system": "http://snomed.info/sct",
                            "code": "368209003",
                            "display": "right arm"
                        }
                    ],
                    "text": "right arm"
                },
                "method": {
                    "coding": [
                        {
                            "system": "http://smarthealthit.org/terms/codes/BloodPressureMethod#",
                            "code": "machine",
                            "display": "machine"
                        }
                    ],
                    "text": "machine"
                },
                "encounter": {
                    "reference": "Encounter/smart-Encounter-15"
                },
                "component": [
                    {
                        "code": {
                            "coding": [
                                {
                                    "system": "http://loinc.org",
                                    "code": "8480-6",
                                    "display": "Systolic blood pressure"
                                }
                            ],
                            "text": "Systolic blood pressure"
                        },
                        "valueQuantity": {
                            "value": 123,
                            "system": "http://unitsofmeasure.org",
                            "code": "mm[Hg]"
                        }
                    },
                    {
                        "code": {
                            "coding": [
                                {
                                    "system": "http://loinc.org",
                                    "code": "8462-4",
                                    "display": "Diastolic blood pressure"
                                }
                            ],
                            "text": "Diastolic blood pressure"
                        },
                        "valueQuantity": {
                            "value": 59,
                            "system": "http://unitsofmeasure.org",
                            "code": "mm[Hg]"
                        }
                    }
                ],
                "meta": {
                    "tag": [
                        {
                            "system": "https://smarthealthit.org/tags",
                            "code": "smart-8-2017"
                        }
                    ]
                }
            },
            "request": {
                "method": "PUT",
                "url": "Observation/smart-Observation-15-bp"
            }
        },
        {
            "resource": {
                "resourceType": "Observation",
                "id": "smart-Observation-15-systolic",
                "text": {
                    "div": "<div>2010-12-22: Systolic blood pressure = 123 mm[Hg]</div>",
                    "status": "generated"
                },
                "category": {
                    "coding": [
                        {
                            "system": "http://hl7.org/fhir/observation-category",
                            "code": "vital-signs",
                            "display": "Vital Signs"
                        }
                    ],
                    "text": "Vital Signs"
                },
                "code": {
                    "coding": [
                        {
                            "system": "http://loinc.org",
                            "code": "8480-6",
                            "display": "Systolic blood pressure"
                        }
                    ],
                    "text": "Systolic blood pressure"
                },
                "valueQuantity": {
                    "value": 123,
                    "system": "http://unitsofmeasure.org",
                    "code": "mm[Hg]"
                },
                "effectiveDateTime": "2010-12-22",
                "status": "final",
                "subject": {
                    "reference": "Patient/smart-9995679"
                },
                "meta": {
                    "tag": [
                        {
                            "system": "https://smarthealthit.org/tags",
                            "code": "smart-8-2017"
                        }
                    ]
                }
            },
            "request": {
                "method": "PUT",
                "url": "Observation/smart-Observation-15-systolic"
            }
        },
        {
            "resource": {
                "resourceType": "Observation",
                "id": "smart-Observation-15-diastolic",
                "text": {
                    "div": "<div>2010-12-22: Diastolic blood pressure = 59 mm[Hg]</div>",
                    "status": "generated"
                },
                "category": {
                    "coding": [
                        {
                            "system": "http://hl7.org/fhir/observation-category",
                            "code": "vital-signs",
                            "display": "Vital Signs"
                        }
                    ],
                    "text": "Vital Signs"
                },
                "code": {
                    "coding": [
                        {
                            "system": "http://loinc.org",
                            "code": "8462-4",
                            "display": "Diastolic blood pressure"
                        }
                    ],
                    "text": "Diastolic blood pressure"
                },
                "valueQuantity": {
                    "value": 59,
                    "system": "http://unitsofmeasure.org",
                    "code": "mm[Hg]"
                },
                "effectiveDateTime": "2010-12-22",
                "status": "final",
                "subject": {
                    "reference": "Patient/smart-9995679"
                },
                "meta": {
                    "tag": [
                        {
                            "system": "https://smarthealthit.org/tags",
                            "code": "smart-8-2017"
                        }
                    ]
                }
            },
            "request": {
                "method": "PUT",
                "url": "Observation/smart-Observation-15-diastolic"
            }
        },
        {
            "resource": {
                "resourceType": "Observation",
                "id": "smart-Observation-1-height",
                "text": {
                    "div": "<div>2006-12-27: height = 198.0 cm</div>",
                    "status": "generated"
                },
                "category": {
                    "coding": [
                        {
                            "system": "http://hl7.org/fhir/observation-category",
                            "code": "vital-signs",
                            "display": "Vital Signs"
                        }
                    ],
                    "text": "Vital Signs"
                },
                "code": {
                    "coding": [
                        {
                            "system": "http://loinc.org",
                            "code": "8302-2",
                            "display": "height"
                        }
                    ],
                    "text": "height"
                },
                "valueQuantity": {
                    "value": 198,
                    "system": "http://unitsofmeasure.org",
                    "code": "cm"
                },
                "effectiveDateTime": "2006-12-27",
                "status": "final",
                "subject": {
                    "reference": "Patient/smart-9995679"
                },
                "encounter": {
                    "reference": "Encounter/smart-Encounter-1"
                },
                "meta": {
                    "tag": [
                        {
                            "system": "https://smarthealthit.org/tags",
                            "code": "smart-8-2017"
                        }
                    ]
                }
            },
            "request": {
                "method": "PUT",
                "url": "Observation/smart-Observation-1-height"
            }
        },
        {
            "resource": {
                "resourceType": "Observation",
                "id": "smart-Observation-1-heartrate",
                "text": {
                    "div": "<div>2006-12-27: heart_rate = 54.0 {beats}/min</div>",
                    "status": "generated"
                },
                "category": {
                    "coding": [
                        {
                            "system": "http://hl7.org/fhir/observation-category",
                            "code": "vital-signs",
                            "display": "Vital Signs"
                        }
                    ],
                    "text": "Vital Signs"
                },
                "code": {
                    "coding": [
                        {
                            "system": "http://loinc.org",
                            "code": "8867-4",
                            "display": "heart_rate"
                        }
                    ],
                    "text": "heart_rate"
                },
                "valueQuantity": {
                    "value": 54,
                    "system": "http://unitsofmeasure.org",
                    "code": "{beats}/min"
                },
                "effectiveDateTime": "2006-12-27",
                "status": "final",
                "subject": {
                    "reference": "Patient/smart-9995679"
                },
                "encounter": {
                    "reference": "Encounter/smart-Encounter-1"
                },
                "meta": {
                    "tag": [
                        {
                            "system": "https://smarthealthit.org/tags",
                            "code": "smart-8-2017"
                        }
                    ]
                }
            },
            "request": {
                "method": "PUT",
                "url": "Observation/smart-Observation-1-heartrate"
            }
        },
        {
            "resource": {
                "resourceType": "Observation",
                "id": "smart-Observation-1-weight",
                "text": {
                    "div": "<div>2006-12-27: weight = 86.0 kg</div>",
                    "status": "generated"
                },
                "category": {
                    "coding": [
                        {
                            "system": "http://hl7.org/fhir/observation-category",
                            "code": "vital-signs",
                            "display": "Vital Signs"
                        }
                    ],
                    "text": "Vital Signs"
                },
                "code": {
                    "coding": [
                        {
                            "system": "http://loinc.org",
                            "code": "3141-9",
                            "display": "weight"
                        }
                    ],
                    "text": "weight"
                },
                "valueQuantity": {
                    "value": 86,
                    "system": "http://unitsofmeasure.org",
                    "code": "kg"
                },
                "effectiveDateTime": "2006-12-27",
                "status": "final",
                "subject": {
                    "reference": "Patient/smart-9995679"
                },
                "encounter": {
                    "reference": "Encounter/smart-Encounter-1"
                },
                "meta": {
                    "tag": [
                        {
                            "system": "https://smarthealthit.org/tags",
                            "code": "smart-8-2017"
                        }
                    ]
                }
            },
            "request": {
                "method": "PUT",
                "url": "Observation/smart-Observation-1-weight"
            }
        },
        {
            "resource": {
                "resourceType": "Observation",
                "id": "smart-Observation-2-height",
                "text": {
                    "div": "<div>2007-04-18: height = 197.5 cm</div>",
                    "status": "generated"
                },
                "category": {
                    "coding": [
                        {
                            "system": "http://hl7.org/fhir/observation-category",
                            "code": "vital-signs",
                            "display": "Vital Signs"
                        }
                    ],
                    "text": "Vital Signs"
                },
                "code": {
                    "coding": [
                        {
                            "system": "http://loinc.org",
                            "code": "8302-2",
                            "display": "height"
                        }
                    ],
                    "text": "height"
                },
                "valueQuantity": {
                    "value": 197.5,
                    "system": "http://unitsofmeasure.org",
                    "code": "cm"
                },
                "effectiveDateTime": "2007-04-18",
                "status": "final",
                "subject": {
                    "reference": "Patient/smart-9995679"
                },
                "encounter": {
                    "reference": "Encounter/smart-Encounter-2"
                },
                "meta": {
                    "tag": [
                        {
                            "system": "https://smarthealthit.org/tags",
                            "code": "smart-8-2017"
                        }
                    ]
                }
            },
            "request": {
                "method": "PUT",
                "url": "Observation/smart-Observation-2-height"
            }
        },
        {
            "resource": {
                "resourceType": "Observation",
                "id": "smart-Observation-2-heartrate",
                "text": {
                    "div": "<div>2007-04-18: heart_rate = 60.0 {beats}/min</div>",
                    "status": "generated"
                },
                "category": {
                    "coding": [
                        {
                            "system": "http://hl7.org/fhir/observation-category",
                            "code": "vital-signs",
                            "display": "Vital Signs"
                        }
                    ],
                    "text": "Vital Signs"
                },
                "code": {
                    "coding": [
                        {
                            "system": "http://loinc.org",
                            "code": "8867-4",
                            "display": "heart_rate"
                        }
                    ],
                    "text": "heart_rate"
                },
                "valueQuantity": {
                    "value": 60,
                    "system": "http://unitsofmeasure.org",
                    "code": "{beats}/min"
                },
                "effectiveDateTime": "2007-04-18",
                "status": "final",
                "subject": {
                    "reference": "Patient/smart-9995679"
                },
                "encounter": {
                    "reference": "Encounter/smart-Encounter-2"
                },
                "meta": {
                    "tag": [
                        {
                            "system": "https://smarthealthit.org/tags",
                            "code": "smart-8-2017"
                        }
                    ]
                }
            },
            "request": {
                "method": "PUT",
                "url": "Observation/smart-Observation-2-heartrate"
            }
        },
        {
            "resource": {
                "resourceType": "Observation",
                "id": "smart-Observation-2-weight",
                "text": {
                    "div": "<div>2007-04-18: weight = 87.0 kg</div>",
                    "status": "generated"
                },
                "category": {
                    "coding": [
                        {
                            "system": "http://hl7.org/fhir/observation-category",
                            "code": "vital-signs",
                            "display": "Vital Signs"
                        }
                    ],
                    "text": "Vital Signs"
                },
                "code": {
                    "coding": [
                        {
                            "system": "http://loinc.org",
                            "code": "3141-9",
                            "display": "weight"
                        }
                    ],
                    "text": "weight"
                },
                "valueQuantity": {
                    "value": 87,
                    "system": "http://unitsofmeasure.org",
                    "code": "kg"
                },
                "effectiveDateTime": "2007-04-18",
                "status": "final",
                "subject": {
                    "reference": "Patient/smart-9995679"
                },
                "encounter": {
                    "reference": "Encounter/smart-Encounter-2"
                },
                "meta": {
                    "tag": [
                        {
                            "system": "https://smarthealthit.org/tags",
                            "code": "smart-8-2017"
                        }
                    ]
                }
            },
            "request": {
                "method": "PUT",
                "url": "Observation/smart-Observation-2-weight"
            }
        },
        {
            "resource": {
                "resourceType": "Observation",
                "id": "smart-Observation-3-height",
                "text": {
                    "div": "<div>2007-07-18: height = 197.0 cm</div>",
                    "status": "generated"
                },
                "category": {
                    "coding": [
                        {
                            "system": "http://hl7.org/fhir/observation-category",
                            "code": "vital-signs",
                            "display": "Vital Signs"
                        }
                    ],
                    "text": "Vital Signs"
                },
                "code": {
                    "coding": [
                        {
                            "system": "http://loinc.org",
                            "code": "8302-2",
                            "display": "height"
                        }
                    ],
                    "text": "height"
                },
                "valueQuantity": {
                    "value": 197,
                    "system": "http://unitsofmeasure.org",
                    "code": "cm"
                },
                "effectiveDateTime": "2007-07-18",
                "status": "final",
                "subject": {
                    "reference": "Patient/smart-9995679"
                },
                "encounter": {
                    "reference": "Encounter/smart-Encounter-3"
                },
                "meta": {
                    "tag": [
                        {
                            "system": "https://smarthealthit.org/tags",
                            "code": "smart-8-2017"
                        }
                    ]
                }
            },
            "request": {
                "method": "PUT",
                "url": "Observation/smart-Observation-3-height"
            }
        },
        {
            "resource": {
                "resourceType": "Observation",
                "id": "smart-Observation-3-heartrate",
                "text": {
                    "div": "<div>2007-07-18: heart_rate = 80.0 {beats}/min</div>",
                    "status": "generated"
                },
                "category": {
                    "coding": [
                        {
                            "system": "http://hl7.org/fhir/observation-category",
                            "code": "vital-signs",
                            "display": "Vital Signs"
                        }
                    ],
                    "text": "Vital Signs"
                },
                "code": {
                    "coding": [
                        {
                            "system": "http://loinc.org",
                            "code": "8867-4",
                            "display": "heart_rate"
                        }
                    ],
                    "text": "heart_rate"
                },
                "valueQuantity": {
                    "value": 80,
                    "system": "http://unitsofmeasure.org",
                    "code": "{beats}/min"
                },
                "effectiveDateTime": "2007-07-18",
                "status": "final",
                "subject": {
                    "reference": "Patient/smart-9995679"
                },
                "encounter": {
                    "reference": "Encounter/smart-Encounter-3"
                },
                "meta": {
                    "tag": [
                        {
                            "system": "https://smarthealthit.org/tags",
                            "code": "smart-8-2017"
                        }
                    ]
                }
            },
            "request": {
                "method": "PUT",
                "url": "Observation/smart-Observation-3-heartrate"
            }
        },
        {
            "resource": {
                "resourceType": "Observation",
                "id": "smart-Observation-3-weight",
                "text": {
                    "div": "<div>2007-07-18: weight = 90.2 kg</div>",
                    "status": "generated"
                },
                "category": {
                    "coding": [
                        {
                            "system": "http://hl7.org/fhir/observation-category",
                            "code": "vital-signs",
                            "display": "Vital Signs"
                        }
                    ],
                    "text": "Vital Signs"
                },
                "code": {
                    "coding": [
                        {
                            "system": "http://loinc.org",
                            "code": "3141-9",
                            "display": "weight"
                        }
                    ],
                    "text": "weight"
                },
                "valueQuantity": {
                    "value": 90.2,
                    "system": "http://unitsofmeasure.org",
                    "code": "kg"
                },
                "effectiveDateTime": "2007-07-18",
                "status": "final",
                "subject": {
                    "reference": "Patient/smart-9995679"
                },
                "encounter": {
                    "reference": "Encounter/smart-Encounter-3"
                },
                "meta": {
                    "tag": [
                        {
                            "system": "https://smarthealthit.org/tags",
                            "code": "smart-8-2017"
                        }
                    ]
                }
            },
            "request": {
                "method": "PUT",
                "url": "Observation/smart-Observation-3-weight"
            }
        },
        {
            "resource": {
                "resourceType": "Observation",
                "id": "smart-Observation-4-height",
                "text": {
                    "div": "<div>2008-01-16: height = 197.5 cm</div>",
                    "status": "generated"
                },
                "category": {
                    "coding": [
                        {
                            "system": "http://hl7.org/fhir/observation-category",
                            "code": "vital-signs",
                            "display": "Vital Signs"
                        }
                    ],
                    "text": "Vital Signs"
                },
                "code": {
                    "coding": [
                        {
                            "system": "http://loinc.org",
                            "code": "8302-2",
                            "display": "height"
                        }
                    ],
                    "text": "height"
                },
                "valueQuantity": {
                    "value": 197.5,
                    "system": "http://unitsofmeasure.org",
                    "code": "cm"
                },
                "effectiveDateTime": "2008-01-16",
                "status": "final",
                "subject": {
                    "reference": "Patient/smart-9995679"
                },
                "encounter": {
                    "reference": "Encounter/smart-Encounter-4"
                },
                "meta": {
                    "tag": [
                        {
                            "system": "https://smarthealthit.org/tags",
                            "code": "smart-8-2017"
                        }
                    ]
                }
            },
            "request": {
                "method": "PUT",
                "url": "Observation/smart-Observation-4-height"
            }
        },
        {
            "resource": {
                "resourceType": "Observation",
                "id": "smart-Observation-4-heartrate",
                "text": {
                    "div": "<div>2008-01-16: heart_rate = 47.0 {beats}/min</div>",
                    "status": "generated"
                },
                "category": {
                    "coding": [
                        {
                            "system": "http://hl7.org/fhir/observation-category",
                            "code": "vital-signs",
                            "display": "Vital Signs"
                        }
                    ],
                    "text": "Vital Signs"
                },
                "code": {
                    "coding": [
                        {
                            "system": "http://loinc.org",
                            "code": "8867-4",
                            "display": "heart_rate"
                        }
                    ],
                    "text": "heart_rate"
                },
                "valueQuantity": {
                    "value": 47,
                    "system": "http://unitsofmeasure.org",
                    "code": "{beats}/min"
                },
                "effectiveDateTime": "2008-01-16",
                "status": "final",
                "subject": {
                    "reference": "Patient/smart-9995679"
                },
                "encounter": {
                    "reference": "Encounter/smart-Encounter-4"
                },
                "meta": {
                    "tag": [
                        {
                            "system": "https://smarthealthit.org/tags",
                            "code": "smart-8-2017"
                        }
                    ]
                }
            },
            "request": {
                "method": "PUT",
                "url": "Observation/smart-Observation-4-heartrate"
            }
        },
        {
            "resource": {
                "resourceType": "Observation",
                "id": "smart-Observation-4-weight",
                "text": {
                    "div": "<div>2008-01-16: weight = 89.4 kg</div>",
                    "status": "generated"
                },
                "category": {
                    "coding": [
                        {
                            "system": "http://hl7.org/fhir/observation-category",
                            "code": "vital-signs",
                            "display": "Vital Signs"
                        }
                    ],
                    "text": "Vital Signs"
                },
                "code": {
                    "coding": [
                        {
                            "system": "http://loinc.org",
                            "code": "3141-9",
                            "display": "weight"
                        }
                    ],
                    "text": "weight"
                },
                "valueQuantity": {
                    "value": 89.4,
                    "system": "http://unitsofmeasure.org",
                    "code": "kg"
                },
                "effectiveDateTime": "2008-01-16",
                "status": "final",
                "subject": {
                    "reference": "Patient/smart-9995679"
                },
                "encounter": {
                    "reference": "Encounter/smart-Encounter-4"
                },
                "meta": {
                    "tag": [
                        {
                            "system": "https://smarthealthit.org/tags",
                            "code": "smart-8-2017"
                        }
                    ]
                }
            },
            "request": {
                "method": "PUT",
                "url": "Observation/smart-Observation-4-weight"
            }
        },
        {
            "resource": {
                "resourceType": "Observation",
                "id": "smart-Observation-5-height",
                "text": {
                    "div": "<div>2008-06-25: height = 197.5 cm</div>",
                    "status": "generated"
                },
                "category": {
                    "coding": [
                        {
                            "system": "http://hl7.org/fhir/observation-category",
                            "code": "vital-signs",
                            "display": "Vital Signs"
                        }
                    ],
                    "text": "Vital Signs"
                },
                "code": {
                    "coding": [
                        {
                            "system": "http://loinc.org",
                            "code": "8302-2",
                            "display": "height"
                        }
                    ],
                    "text": "height"
                },
                "valueQuantity": {
                    "value": 197.5,
                    "system": "http://unitsofmeasure.org",
                    "code": "cm"
                },
                "effectiveDateTime": "2008-06-25",
                "status": "final",
                "subject": {
                    "reference": "Patient/smart-9995679"
                },
                "encounter": {
                    "reference": "Encounter/smart-Encounter-5"
                },
                "meta": {
                    "tag": [
                        {
                            "system": "https://smarthealthit.org/tags",
                            "code": "smart-8-2017"
                        }
                    ]
                }
            },
            "request": {
                "method": "PUT",
                "url": "Observation/smart-Observation-5-height"
            }
        },
        {
            "resource": {
                "resourceType": "Observation",
                "id": "smart-Observation-5-heartrate",
                "text": {
                    "div": "<div>2008-06-25: heart_rate = 47.0 {beats}/min</div>",
                    "status": "generated"
                },
                "category": {
                    "coding": [
                        {
                            "system": "http://hl7.org/fhir/observation-category",
                            "code": "vital-signs",
                            "display": "Vital Signs"
                        }
                    ],
                    "text": "Vital Signs"
                },
                "code": {
                    "coding": [
                        {
                            "system": "http://loinc.org",
                            "code": "8867-4",
                            "display": "heart_rate"
                        }
                    ],
                    "text": "heart_rate"
                },
                "valueQuantity": {
                    "value": 47,
                    "system": "http://unitsofmeasure.org",
                    "code": "{beats}/min"
                },
                "effectiveDateTime": "2008-06-25",
                "status": "final",
                "subject": {
                    "reference": "Patient/smart-9995679"
                },
                "encounter": {
                    "reference": "Encounter/smart-Encounter-5"
                },
                "meta": {
                    "tag": [
                        {
                            "system": "https://smarthealthit.org/tags",
                            "code": "smart-8-2017"
                        }
                    ]
                }
            },
            "request": {
                "method": "PUT",
                "url": "Observation/smart-Observation-5-heartrate"
            }
        },
        {
            "resource": {
                "resourceType": "Observation",
                "id": "smart-Observation-5-weight",
                "text": {
                    "div": "<div>2008-06-25: weight = 90.2 kg</div>",
                    "status": "generated"
                },
                "category": {
                    "coding": [
                        {
                            "system": "http://hl7.org/fhir/observation-category",
                            "code": "vital-signs",
                            "display": "Vital Signs"
                        }
                    ],
                    "text": "Vital Signs"
                },
                "code": {
                    "coding": [
                        {
                            "system": "http://loinc.org",
                            "code": "3141-9",
                            "display": "weight"
                        }
                    ],
                    "text": "weight"
                },
                "valueQuantity": {
                    "value": 90.2,
                    "system": "http://unitsofmeasure.org",
                    "code": "kg"
                },
                "effectiveDateTime": "2008-06-25",
                "status": "final",
                "subject": {
                    "reference": "Patient/smart-9995679"
                },
                "encounter": {
                    "reference": "Encounter/smart-Encounter-5"
                },
                "meta": {
                    "tag": [
                        {
                            "system": "https://smarthealthit.org/tags",
                            "code": "smart-8-2017"
                        }
                    ]
                }
            },
            "request": {
                "method": "PUT",
                "url": "Observation/smart-Observation-5-weight"
            }
        },
        {
            "resource": {
                "resourceType": "Observation",
                "id": "smart-Observation-6-heartrate",
                "text": {
                    "div": "<div>2008-06-25: heart_rate = 50.0 {beats}/min</div>",
                    "status": "generated"
                },
                "category": {
                    "coding": [
                        {
                            "system": "http://hl7.org/fhir/observation-category",
                            "code": "vital-signs",
                            "display": "Vital Signs"
                        }
                    ],
                    "text": "Vital Signs"
                },
                "code": {
                    "coding": [
                        {
                            "system": "http://loinc.org",
                            "code": "8867-4",
                            "display": "heart_rate"
                        }
                    ],
                    "text": "heart_rate"
                },
                "valueQuantity": {
                    "value": 50,
                    "system": "http://unitsofmeasure.org",
                    "code": "{beats}/min"
                },
                "effectiveDateTime": "2008-06-25",
                "status": "final",
                "subject": {
                    "reference": "Patient/smart-9995679"
                },
                "encounter": {
                    "reference": "Encounter/smart-Encounter-5"
                },
                "meta": {
                    "tag": [
                        {
                            "system": "https://smarthealthit.org/tags",
                            "code": "smart-8-2017"
                        }
                    ]
                }
            },
            "request": {
                "method": "PUT",
                "url": "Observation/smart-Observation-6-heartrate"
            }
        },
        {
            "resource": {
                "resourceType": "Observation",
                "id": "smart-Observation-7-height",
                "text": {
                    "div": "<div>2009-06-10: height = 198.0 cm</div>",
                    "status": "generated"
                },
                "category": {
                    "coding": [
                        {
                            "system": "http://hl7.org/fhir/observation-category",
                            "code": "vital-signs",
                            "display": "Vital Signs"
                        }
                    ],
                    "text": "Vital Signs"
                },
                "code": {
                    "coding": [
                        {
                            "system": "http://loinc.org",
                            "code": "8302-2",
                            "display": "height"
                        }
                    ],
                    "text": "height"
                },
                "valueQuantity": {
                    "value": 198,
                    "system": "http://unitsofmeasure.org",
                    "code": "cm"
                },
                "effectiveDateTime": "2009-06-10",
                "status": "final",
                "subject": {
                    "reference": "Patient/smart-9995679"
                },
                "encounter": {
                    "reference": "Encounter/smart-Encounter-7"
                },
                "meta": {
                    "tag": [
                        {
                            "system": "https://smarthealthit.org/tags",
                            "code": "smart-8-2017"
                        }
                    ]
                }
            },
            "request": {
                "method": "PUT",
                "url": "Observation/smart-Observation-7-height"
            }
        },
        {
            "resource": {
                "resourceType": "Observation",
                "id": "smart-Observation-7-weight",
                "text": {
                    "div": "<div>2009-06-10: weight = 94.7 kg</div>",
                    "status": "generated"
                },
                "category": {
                    "coding": [
                        {
                            "system": "http://hl7.org/fhir/observation-category",
                            "code": "vital-signs",
                            "display": "Vital Signs"
                        }
                    ],
                    "text": "Vital Signs"
                },
                "code": {
                    "coding": [
                        {
                            "system": "http://loinc.org",
                            "code": "3141-9",
                            "display": "weight"
                        }
                    ],
                    "text": "weight"
                },
                "valueQuantity": {
                    "value": 94.7,
                    "system": "http://unitsofmeasure.org",
                    "code": "kg"
                },
                "effectiveDateTime": "2009-06-10",
                "status": "final",
                "subject": {
                    "reference": "Patient/smart-9995679"
                },
                "encounter": {
                    "reference": "Encounter/smart-Encounter-7"
                },
                "meta": {
                    "tag": [
                        {
                            "system": "https://smarthealthit.org/tags",
                            "code": "smart-8-2017"
                        }
                    ]
                }
            },
            "request": {
                "method": "PUT",
                "url": "Observation/smart-Observation-7-weight"
            }
        },
        {
            "resource": {
                "resourceType": "Observation",
                "id": "smart-Observation-9-height",
                "text": {
                    "div": "<div>2009-12-23: height = 197.5 cm</div>",
                    "status": "generated"
                },
                "category": {
                    "coding": [
                        {
                            "system": "http://hl7.org/fhir/observation-category",
                            "code": "vital-signs",
                            "display": "Vital Signs"
                        }
                    ],
                    "text": "Vital Signs"
                },
                "code": {
                    "coding": [
                        {
                            "system": "http://loinc.org",
                            "code": "8302-2",
                            "display": "height"
                        }
                    ],
                    "text": "height"
                },
                "valueQuantity": {
                    "value": 197.5,
                    "system": "http://unitsofmeasure.org",
                    "code": "cm"
                },
                "effectiveDateTime": "2009-12-23",
                "status": "final",
                "subject": {
                    "reference": "Patient/smart-9995679"
                },
                "encounter": {
                    "reference": "Encounter/smart-Encounter-9"
                },
                "meta": {
                    "tag": [
                        {
                            "system": "https://smarthealthit.org/tags",
                            "code": "smart-8-2017"
                        }
                    ]
                }
            },
            "request": {
                "method": "PUT",
                "url": "Observation/smart-Observation-9-height"
            }
        },
        {
            "resource": {
                "resourceType": "Observation",
                "id": "smart-Observation-9-heartrate",
                "text": {
                    "div": "<div>2009-12-23: heart_rate = 50.0 {beats}/min</div>",
                    "status": "generated"
                },
                "category": {
                    "coding": [
                        {
                            "system": "http://hl7.org/fhir/observation-category",
                            "code": "vital-signs",
                            "display": "Vital Signs"
                        }
                    ],
                    "text": "Vital Signs"
                },
                "code": {
                    "coding": [
                        {
                            "system": "http://loinc.org",
                            "code": "8867-4",
                            "display": "heart_rate"
                        }
                    ],
                    "text": "heart_rate"
                },
                "valueQuantity": {
                    "value": 50,
                    "system": "http://unitsofmeasure.org",
                    "code": "{beats}/min"
                },
                "effectiveDateTime": "2009-12-23",
                "status": "final",
                "subject": {
                    "reference": "Patient/smart-9995679"
                },
                "encounter": {
                    "reference": "Encounter/smart-Encounter-9"
                },
                "meta": {
                    "tag": [
                        {
                            "system": "https://smarthealthit.org/tags",
                            "code": "smart-8-2017"
                        }
                    ]
                }
            },
            "request": {
                "method": "PUT",
                "url": "Observation/smart-Observation-9-heartrate"
            }
        },
        {
            "resource": {
                "resourceType": "Observation",
                "id": "smart-Observation-9-weight",
                "text": {
                    "div": "<div>2009-12-23: weight = 92.2 kg</div>",
                    "status": "generated"
                },
                "category": {
                    "coding": [
                        {
                            "system": "http://hl7.org/fhir/observation-category",
                            "code": "vital-signs",
                            "display": "Vital Signs"
                        }
                    ],
                    "text": "Vital Signs"
                },
                "code": {
                    "coding": [
                        {
                            "system": "http://loinc.org",
                            "code": "3141-9",
                            "display": "weight"
                        }
                    ],
                    "text": "weight"
                },
                "valueQuantity": {
                    "value": 92.2,
                    "system": "http://unitsofmeasure.org",
                    "code": "kg"
                },
                "effectiveDateTime": "2009-12-23",
                "status": "final",
                "subject": {
                    "reference": "Patient/smart-9995679"
                },
                "encounter": {
                    "reference": "Encounter/smart-Encounter-9"
                },
                "meta": {
                    "tag": [
                        {
                            "system": "https://smarthealthit.org/tags",
                            "code": "smart-8-2017"
                        }
                    ]
                }
            },
            "request": {
                "method": "PUT",
                "url": "Observation/smart-Observation-9-weight"
            }
        },
        {
            "resource": {
                "resourceType": "Observation",
                "id": "smart-Observation-10-heartrate",
                "text": {
                    "div": "<div>2009-12-23: heart_rate = 50.0 {beats}/min</div>",
                    "status": "generated"
                },
                "category": {
                    "coding": [
                        {
                            "system": "http://hl7.org/fhir/observation-category",
                            "code": "vital-signs",
                            "display": "Vital Signs"
                        }
                    ],
                    "text": "Vital Signs"
                },
                "code": {
                    "coding": [
                        {
                            "system": "http://loinc.org",
                            "code": "8867-4",
                            "display": "heart_rate"
                        }
                    ],
                    "text": "heart_rate"
                },
                "valueQuantity": {
                    "value": 50,
                    "system": "http://unitsofmeasure.org",
                    "code": "{beats}/min"
                },
                "effectiveDateTime": "2009-12-23",
                "status": "final",
                "subject": {
                    "reference": "Patient/smart-9995679"
                },
                "encounter": {
                    "reference": "Encounter/smart-Encounter-9"
                },
                "meta": {
                    "tag": [
                        {
                            "system": "https://smarthealthit.org/tags",
                            "code": "smart-8-2017"
                        }
                    ]
                }
            },
            "request": {
                "method": "PUT",
                "url": "Observation/smart-Observation-10-heartrate"
            }
        },
        {
            "resource": {
                "resourceType": "Observation",
                "id": "smart-Observation-11-heartrate",
                "text": {
                    "div": "<div>2009-12-23: heart_rate = 49.0 {beats}/min</div>",
                    "status": "generated"
                },
                "category": {
                    "coding": [
                        {
                            "system": "http://hl7.org/fhir/observation-category",
                            "code": "vital-signs",
                            "display": "Vital Signs"
                        }
                    ],
                    "text": "Vital Signs"
                },
                "code": {
                    "coding": [
                        {
                            "system": "http://loinc.org",
                            "code": "8867-4",
                            "display": "heart_rate"
                        }
                    ],
                    "text": "heart_rate"
                },
                "valueQuantity": {
                    "value": 49,
                    "system": "http://unitsofmeasure.org",
                    "code": "{beats}/min"
                },
                "effectiveDateTime": "2009-12-23",
                "status": "final",
                "subject": {
                    "reference": "Patient/smart-9995679"
                },
                "encounter": {
                    "reference": "Encounter/smart-Encounter-9"
                },
                "meta": {
                    "tag": [
                        {
                            "system": "https://smarthealthit.org/tags",
                            "code": "smart-8-2017"
                        }
                    ]
                }
            },
            "request": {
                "method": "PUT",
                "url": "Observation/smart-Observation-11-heartrate"
            }
        },
        {
            "resource": {
                "resourceType": "Observation",
                "id": "smart-Observation-12-heartrate",
                "text": {
                    "div": "<div>2009-12-23: heart_rate = 53.0 {beats}/min</div>",
                    "status": "generated"
                },
                "category": {
                    "coding": [
                        {
                            "system": "http://hl7.org/fhir/observation-category",
                            "code": "vital-signs",
                            "display": "Vital Signs"
                        }
                    ],
                    "text": "Vital Signs"
                },
                "code": {
                    "coding": [
                        {
                            "system": "http://loinc.org",
                            "code": "8867-4",
                            "display": "heart_rate"
                        }
                    ],
                    "text": "heart_rate"
                },
                "valueQuantity": {
                    "value": 53,
                    "system": "http://unitsofmeasure.org",
                    "code": "{beats}/min"
                },
                "effectiveDateTime": "2009-12-23",
                "status": "final",
                "subject": {
                    "reference": "Patient/smart-9995679"
                },
                "encounter": {
                    "reference": "Encounter/smart-Encounter-9"
                },
                "meta": {
                    "tag": [
                        {
                            "system": "https://smarthealthit.org/tags",
                            "code": "smart-8-2017"
                        }
                    ]
                }
            },
            "request": {
                "method": "PUT",
                "url": "Observation/smart-Observation-12-heartrate"
            }
        },
        {
            "resource": {
                "resourceType": "Observation",
                "id": "smart-Observation-13-heartrate",
                "text": {
                    "div": "<div>2009-12-23: heart_rate = 48.0 {beats}/min</div>",
                    "status": "generated"
                },
                "category": {
                    "coding": [
                        {
                            "system": "http://hl7.org/fhir/observation-category",
                            "code": "vital-signs",
                            "display": "Vital Signs"
                        }
                    ],
                    "text": "Vital Signs"
                },
                "code": {
                    "coding": [
                        {
                            "system": "http://loinc.org",
                            "code": "8867-4",
                            "display": "heart_rate"
                        }
                    ],
                    "text": "heart_rate"
                },
                "valueQuantity": {
                    "value": 48,
                    "system": "http://unitsofmeasure.org",
                    "code": "{beats}/min"
                },
                "effectiveDateTime": "2009-12-23",
                "status": "final",
                "subject": {
                    "reference": "Patient/smart-9995679"
                },
                "encounter": {
                    "reference": "Encounter/smart-Encounter-9"
                },
                "meta": {
                    "tag": [
                        {
                            "system": "https://smarthealthit.org/tags",
                            "code": "smart-8-2017"
                        }
                    ]
                }
            },
            "request": {
                "method": "PUT",
                "url": "Observation/smart-Observation-13-heartrate"
            }
        },
        {
            "resource": {
                "resourceType": "Observation",
                "id": "smart-Observation-14-heartrate",
                "text": {
                    "div": "<div>2009-12-23: heart_rate = 52.0 {beats}/min</div>",
                    "status": "generated"
                },
                "category": {
                    "coding": [
                        {
                            "system": "http://hl7.org/fhir/observation-category",
                            "code": "vital-signs",
                            "display": "Vital Signs"
                        }
                    ],
                    "text": "Vital Signs"
                },
                "code": {
                    "coding": [
                        {
                            "system": "http://loinc.org",
                            "code": "8867-4",
                            "display": "heart_rate"
                        }
                    ],
                    "text": "heart_rate"
                },
                "valueQuantity": {
                    "value": 52,
                    "system": "http://unitsofmeasure.org",
                    "code": "{beats}/min"
                },
                "effectiveDateTime": "2009-12-23",
                "status": "final",
                "subject": {
                    "reference": "Patient/smart-9995679"
                },
                "encounter": {
                    "reference": "Encounter/smart-Encounter-9"
                },
                "meta": {
                    "tag": [
                        {
                            "system": "https://smarthealthit.org/tags",
                            "code": "smart-8-2017"
                        }
                    ]
                }
            },
            "request": {
                "method": "PUT",
                "url": "Observation/smart-Observation-14-heartrate"
            }
        },
        {
            "resource": {
                "resourceType": "Observation",
                "id": "smart-Observation-15-height",
                "text": {
                    "div": "<div>2010-12-22: height = 197.0 cm</div>",
                    "status": "generated"
                },
                "category": {
                    "coding": [
                        {
                            "system": "http://hl7.org/fhir/observation-category",
                            "code": "vital-signs",
                            "display": "Vital Signs"
                        }
                    ],
                    "text": "Vital Signs"
                },
                "code": {
                    "coding": [
                        {
                            "system": "http://loinc.org",
                            "code": "8302-2",
                            "display": "height"
                        }
                    ],
                    "text": "height"
                },
                "valueQuantity": {
                    "value": 197,
                    "system": "http://unitsofmeasure.org",
                    "code": "cm"
                },
                "effectiveDateTime": "2010-12-22",
                "status": "final",
                "subject": {
                    "reference": "Patient/smart-9995679"
                },
                "encounter": {
                    "reference": "Encounter/smart-Encounter-15"
                },
                "meta": {
                    "tag": [
                        {
                            "system": "https://smarthealthit.org/tags",
                            "code": "smart-8-2017"
                        }
                    ]
                }
            },
            "request": {
                "method": "PUT",
                "url": "Observation/smart-Observation-15-height"
            }
        },
        {
            "resource": {
                "resourceType": "Observation",
                "id": "smart-Observation-15-heartrate",
                "text": {
                    "div": "<div>2010-12-22: heart_rate = 52.0 {beats}/min</div>",
                    "status": "generated"
                },
                "category": {
                    "coding": [
                        {
                            "system": "http://hl7.org/fhir/observation-category",
                            "code": "vital-signs",
                            "display": "Vital Signs"
                        }
                    ],
                    "text": "Vital Signs"
                },
                "code": {
                    "coding": [
                        {
                            "system": "http://loinc.org",
                            "code": "8867-4",
                            "display": "heart_rate"
                        }
                    ],
                    "text": "heart_rate"
                },
                "valueQuantity": {
                    "value": 52,
                    "system": "http://unitsofmeasure.org",
                    "code": "{beats}/min"
                },
                "effectiveDateTime": "2010-12-22",
                "status": "final",
                "subject": {
                    "reference": "Patient/smart-9995679"
                },
                "encounter": {
                    "reference": "Encounter/smart-Encounter-15"
                },
                "meta": {
                    "tag": [
                        {
                            "system": "https://smarthealthit.org/tags",
                            "code": "smart-8-2017"
                        }
                    ]
                }
            },
            "request": {
                "method": "PUT",
                "url": "Observation/smart-Observation-15-heartrate"
            }
        },
        {
            "resource": {
                "resourceType": "Observation",
                "id": "smart-Observation-15-weight",
                "text": {
                    "div": "<div>2010-12-22: weight = 92.3 kg</div>",
                    "status": "generated"
                },
                "category": {
                    "coding": [
                        {
                            "system": "http://hl7.org/fhir/observation-category",
                            "code": "vital-signs",
                            "display": "Vital Signs"
                        }
                    ],
                    "text": "Vital Signs"
                },
                "code": {
                    "coding": [
                        {
                            "system": "http://loinc.org",
                            "code": "3141-9",
                            "display": "weight"
                        }
                    ],
                    "text": "weight"
                },
                "valueQuantity": {
                    "value": 92.3,
                    "system": "http://unitsofmeasure.org",
                    "code": "kg"
                },
                "effectiveDateTime": "2010-12-22",
                "status": "final",
                "subject": {
                    "reference": "Patient/smart-9995679"
                },
                "encounter": {
                    "reference": "Encounter/smart-Encounter-15"
                },
                "meta": {
                    "tag": [
                        {
                            "system": "https://smarthealthit.org/tags",
                            "code": "smart-8-2017"
                        }
                    ]
                }
            },
            "request": {
                "method": "PUT",
                "url": "Observation/smart-Observation-15-weight"
            }
        }
    ]
}