{
    "resourceType": "Bundle",
    "type": "transaction",
    "entry": [
        {
            "resource": {
                "resourceType": "Patient",
                "id": "smart-1081332",
                "text": {
                    "div": "<div><p>Joseph Ross</p></div>",
                    "status": "generated"
                },
                "identifier": [
                    {
                        "use": "usual",
                        "system": "http://hospital.smarthealthit.org",
                        "value": "1081332"
                    }
                ],
                "name": [
                    {
                        "use": "official",
                        "family": [
                            "Ross"
                        ],
                        "given": [
                            "Joseph",
                            "I."
                        ]
                    }
                ],
                "telecom": [
                    {
                        "system": "phone",
                        "value": "800-960-9294",
                        "use": "mobile"
                    },
                    {
                        "system": "email",
                        "value": "joseph.ross@example.com"
                    }
                ],
                "gender": "male",
                "birthDate": "2003-10-02",
                "address": [
                    {
                        "use": "home",
                        "line": [
                            "19 Church StApt 29"
                        ],
                        "city": "Tulsa",
                        "state": "OK",
                        "country": "USA"
                    }
                ],
                "active": true,
                "meta": {
                    "tag": [
                        {
                            "system": "https://smarthealthit.org/tags",
                            "code": "smart-8-2017"
                        }
                    ]
                }
            },
            "request": {
                "method": "PUT",
                "url": "Patient/smart-1081332"
            }
        },
        {
            "resource": {
                "resourceType": "MedicationOrder",
                "id": "smart-MedicationOrder-102",
                "text": {
                    "div": "<div>\n      Amoxicillin 80 MG/ML Oral Suspension (rxnorm: 308189)\n    </div>",
                    "status": "generated"
                },
                "status": "active",
                "patient": {
                    "reference": "Patient/smart-1081332"
                },
                "dosageInstruction": [
                    {
                        "timing": {
                            "repeat": {
                                "boundsPeriod": {
                                    "start": "2004-07-13"
                                },
                                "frequency": 2,
                                "period": 1,
                                "periodUnits": "d"
                            }
                        },
                        "text": "7 mL bid x 10 days"
                    }
                ],
                "dispenseRequest": {
                    "numberOfRepeatsAllowed": "1",
                    "quantity": {
                        "value": 1,
                        "system": "http://unitsofmeasure.org",
                        "code": "mL"
                    },
                    "expectedSupplyDuration": {
                        "value": 10,
                        "system": "http://unitsofmeasure.org",
                        "code": "d"
                    }
                },
                "meta": {
                    "tag": [
                        {
                            "system": "https://smarthealthit.org/tags",
                            "code": "smart-8-2017"
                        }
                    ]
                }
            },
            "request": {
                "method": "PUT",
                "url": "MedicationOrder/smart-MedicationOrder-102"
            }
        },
        {
            "resource": {
                "resourceType": "MedicationDispense",
                "id": "smart-MedicationDispense-1229",
                "text": {
                    "div": "<div>\n      Dispensed 75 tablets = 7 day supply of Amoxicillin 80 MG/ML Oral Suspension\n    </div>",
                    "status": "generated"
                },
                "status": "completed",
                "patient": {
                    "reference": "Patient/smart-1081332"
                },
                "authorizingPrescription": [
                    {
                        "reference": "MedicationOrder/smart-MedicationOrder-102"
                    }
                ],
                "quantity": {
                    "value": 75,
                    "system": "http://unitsofmeasure.org",
                    "code": "{tablets}"
                },
                "daysSupply": {
                    "value": 7,
                    "system": "http://unitsofmeasure.org",
                    "code": "d"
                },
                "whenHandedOver": "2004-07-13",
                "meta": {
                    "tag": [
                        {
                            "system": "https://smarthealthit.org/tags",
                            "code": "smart-8-2017"
                        }
                    ]
                }
            },
            "request": {
                "method": "PUT",
                "url": "MedicationDispense/smart-MedicationDispense-1229"
            }
        },
        {
            "resource": {
                "resourceType": "MedicationOrder",
                "id": "smart-MedicationOrder-103",
                "text": {
                    "div": "<div>\n      Amoxicillin 120 MG/ML / clavulanate potassium 8.58 MG/ML Oral Suspension (rxnorm: 617993)\n    </div>",
                    "status": "generated"
                },
                "status": "active",
                "patient": {
                    "reference": "Patient/smart-1081332"
                },
                "dosageInstruction": [
                    {
                        "timing": {
                            "repeat": {
                                "boundsPeriod": {
                                    "start": "2005-01-04"
                                },
                                "frequency": 2,
                                "period": 1,
                                "periodUnits": "d"
                            }
                        },
                        "text": "5 mL bid x 10 days"
                    }
                ],
                "dispenseRequest": {
                    "numberOfRepeatsAllowed": "1",
                    "quantity": {
                        "value": 1,
                        "system": "http://unitsofmeasure.org",
                        "code": "mL"
                    },
                    "expectedSupplyDuration": {
                        "value": 10,
                        "system": "http://unitsofmeasure.org",
                        "code": "d"
                    }
                },
                "meta": {
                    "tag": [
                        {
                            "system": "https://smarthealthit.org/tags",
                            "code": "smart-8-2017"
                        }
                    ]
                }
            },
            "request": {
                "method": "PUT",
                "url": "MedicationOrder/smart-MedicationOrder-103"
            }
        },
        {
            "resource": {
                "resourceType": "MedicationDispense",
                "id": "smart-MedicationDispense-1236",
                "text": {
                    "div": "<div>\n      Dispensed 75 tablets = 10 day supply of Amoxicillin 120 MG/ML / clavulanate potassium 8.58 MG/ML Oral Suspension\n    </div>",
                    "status": "generated"
                },
                "status": "completed",
                "patient": {
                    "reference": "Patient/smart-1081332"
                },
                "authorizingPrescription": [
                    {
                        "reference": "MedicationOrder/smart-MedicationOrder-103"
                    }
                ],
                "quantity": {
                    "value": 75,
                    "system": "http://unitsofmeasure.org",
                    "code": "{tablets}"
                },
                "daysSupply": {
                    "value": 10,
                    "system": "http://unitsofmeasure.org",
                    "code": "d"
                },
                "whenHandedOver": "2005-01-04",
                "meta": {
                    "tag": [
                        {
                            "system": "https://smarthealthit.org/tags",
                            "code": "smart-8-2017"
                        }
                    ]
                }
            },
            "request": {
                "method": "PUT",
                "url": "MedicationDispense/smart-MedicationDispense-1236"
            }
        },
        {
            "resource": {
                "resourceType": "MedicationDispense",
                "id": "smart-MedicationDispense-1237",
                "text": {
                    "div": "<div>\n      Dispensed 125 tablets = 10 day supply of Amoxicillin 120 MG/ML / clavulanate potassium 8.58 MG/ML Oral Suspension\n    </div>",
                    "status": "generated"
                },
                "status": "completed",
                "patient": {
                    "reference": "Patient/smart-1081332"
                },
                "authorizingPrescription": [
                    {
                        "reference": "MedicationOrder/smart-MedicationOrder-103"
                    }
                ],
                "quantity": {
                    "value": 125,
                    "system": "http://unitsofmeasure.org",
                    "code": "{tablets}"
                },
                "daysSupply": {
                    "value": 10,
                    "system": "http://unitsofmeasure.org",
                    "code": "d"
                },
                "whenHandedOver": "2005-02-07",
                "meta": {
                    "tag": [
                        {
                            "system": "https://smarthealthit.org/tags",
                            "code": "smart-8-2017"
                        }
                    ]
                }
            },
            "request": {
                "method": "PUT",
                "url": "MedicationDispense/smart-MedicationDispense-1237"
            }
        },
        {
            "resource": {
                "resourceType": "MedicationOrder",
                "id": "smart-MedicationOrder-104",
                "text": {
                    "div": "<div>\n      Azithromycin 20 MG/ML Oral Suspension [Zithromax] (rxnorm: 211307)\n    </div>",
                    "status": "generated"
                },
                "status": "active",
                "patient": {
                    "reference": "Patient/smart-1081332"
                },
                "dosageInstruction": [
                    {
                        "timing": {
                            "repeat": {
                                "boundsPeriod": {
                                    "start": "2005-01-18"
                                },
                                "frequency": 1,
                                "period": 1,
                                "periodUnits": "d"
                            }
                        },
                        "text": "15 mL daily x 3 days"
                    }
                ],
                "dispenseRequest": {
                    "numberOfRepeatsAllowed": "1",
                    "quantity": {
                        "value": 1,
                        "system": "http://unitsofmeasure.org",
                        "code": "mL"
                    },
                    "expectedSupplyDuration": {
                        "value": 3,
                        "system": "http://unitsofmeasure.org",
                        "code": "d"
                    }
                },
                "meta": {
                    "tag": [
                        {
                            "system": "https://smarthealthit.org/tags",
                            "code": "smart-8-2017"
                        }
                    ]
                }
            },
            "request": {
                "method": "PUT",
                "url": "MedicationOrder/smart-MedicationOrder-104"
            }
        },
        {
            "resource": {
                "resourceType": "MedicationDispense",
                "id": "smart-MedicationDispense-1231",
                "text": {
                    "div": "<div>\n      Dispensed 15 tablets = 5 day supply of Azithromycin 20 MG/ML Oral Suspension [Zithromax]\n    </div>",
                    "status": "generated"
                },
                "status": "completed",
                "patient": {
                    "reference": "Patient/smart-1081332"
                },
                "authorizingPrescription": [
                    {
                        "reference": "MedicationOrder/smart-MedicationOrder-104"
                    }
                ],
                "quantity": {
                    "value": 15,
                    "system": "http://unitsofmeasure.org",
                    "code": "{tablets}"
                },
                "daysSupply": {
                    "value": 5,
                    "system": "http://unitsofmeasure.org",
                    "code": "d"
                },
                "whenHandedOver": "2005-01-18",
                "meta": {
                    "tag": [
                        {
                            "system": "https://smarthealthit.org/tags",
                            "code": "smart-8-2017"
                        }
                    ]
                }
            },
            "request": {
                "method": "PUT",
                "url": "MedicationDispense/smart-MedicationDispense-1231"
            }
        },
        {
            "resource": {
                "resourceType": "MedicationOrder",
                "id": "smart-MedicationOrder-105",
                "text": {
                    "div": "<div>\n      cefdinir 25 MG/ML Oral Suspension [Omnicef] (rxnorm: 261091)\n    </div>",
                    "status": "generated"
                },
                "status": "active",
                "patient": {
                    "reference": "Patient/smart-1081332"
                },
                "dosageInstruction": [
                    {
                        "timing": {
                            "repeat": {
                                "boundsPeriod": {
                                    "start": "2005-01-28"
                                },
                                "frequency": 2,
                                "period": 1,
                                "periodUnits": "d"
                            }
                        },
                        "text": "7 mL bid x 10 days"
                    }
                ],
                "dispenseRequest": {
                    "numberOfRepeatsAllowed": "1",
                    "quantity": {
                        "value": 1,
                        "system": "http://unitsofmeasure.org",
                        "code": "mL"
                    },
                    "expectedSupplyDuration": {
                        "value": 10,
                        "system": "http://unitsofmeasure.org",
                        "code": "d"
                    }
                },
                "meta": {
                    "tag": [
                        {
                            "system": "https://smarthealthit.org/tags",
                            "code": "smart-8-2017"
                        }
                    ]
                }
            },
            "request": {
                "method": "PUT",
                "url": "MedicationOrder/smart-MedicationOrder-105"
            }
        },
        {
            "resource": {
                "resourceType": "MedicationDispense",
                "id": "smart-MedicationDispense-1227",
                "text": {
                    "div": "<div>\n      Dispensed 60 tablets = 10 day supply of cefdinir 25 MG/ML Oral Suspension [Omnicef]\n    </div>",
                    "status": "generated"
                },
                "status": "completed",
                "patient": {
                    "reference": "Patient/smart-1081332"
                },
                "authorizingPrescription": [
                    {
                        "reference": "MedicationOrder/smart-MedicationOrder-105"
                    }
                ],
                "quantity": {
                    "value": 60,
                    "system": "http://unitsofmeasure.org",
                    "code": "{tablets}"
                },
                "daysSupply": {
                    "value": 10,
                    "system": "http://unitsofmeasure.org",
                    "code": "d"
                },
                "whenHandedOver": "2005-01-28",
                "meta": {
                    "tag": [
                        {
                            "system": "https://smarthealthit.org/tags",
                            "code": "smart-8-2017"
                        }
                    ]
                }
            },
            "request": {
                "method": "PUT",
                "url": "MedicationDispense/smart-MedicationDispense-1227"
            }
        },
        {
            "resource": {
                "resourceType": "MedicationDispense",
                "id": "smart-MedicationDispense-1228",
                "text": {
                    "div": "<div>\n      Dispensed 60 tablets = 7 day supply of cefdinir 25 MG/ML Oral Suspension [Omnicef]\n    </div>",
                    "status": "generated"
                },
                "status": "completed",
                "patient": {
                    "reference": "Patient/smart-1081332"
                },
                "authorizingPrescription": [
                    {
                        "reference": "MedicationOrder/smart-MedicationOrder-105"
                    }
                ],
                "quantity": {
                    "value": 60,
                    "system": "http://unitsofmeasure.org",
                    "code": "{tablets}"
                },
                "daysSupply": {
                    "value": 7,
                    "system": "http://unitsofmeasure.org",
                    "code": "d"
                },
                "whenHandedOver": "2005-03-11",
                "meta": {
                    "tag": [
                        {
                            "system": "https://smarthealthit.org/tags",
                            "code": "smart-8-2017"
                        }
                    ]
                }
            },
            "request": {
                "method": "PUT",
                "url": "MedicationDispense/smart-MedicationDispense-1228"
            }
        },
        {
            "resource": {
                "resourceType": "MedicationOrder",
                "id": "smart-MedicationOrder-106",
                "text": {
                    "div": "<div>\n      Ciprofloxacin 3 MG/ML / Dexamethasone 1 MG/ML Otic Suspension [Ciprodex] (rxnorm: 404630)\n    </div>",
                    "status": "generated"
                },
                "status": "active",
                "patient": {
                    "reference": "Patient/smart-1081332"
                },
                "dosageInstruction": [
                    {
                        "timing": {
                            "repeat": {
                                "boundsPeriod": {
                                    "start": "2005-03-11"
                                },
                                "frequency": 3,
                                "period": 1,
                                "periodUnits": "d"
                            }
                        },
                        "text": "4 gtt in ear bid x7 days"
                    }
                ],
                "dispenseRequest": {
                    "numberOfRepeatsAllowed": "1",
                    "quantity": {
                        "value": 1,
                        "system": "http://unitsofmeasure.org",
                        "code": "[drp]"
                    },
                    "expectedSupplyDuration": {
                        "value": 7,
                        "system": "http://unitsofmeasure.org",
                        "code": "d"
                    }
                },
                "meta": {
                    "tag": [
                        {
                            "system": "https://smarthealthit.org/tags",
                            "code": "smart-8-2017"
                        }
                    ]
                }
            },
            "request": {
                "method": "PUT",
                "url": "MedicationOrder/smart-MedicationOrder-106"
            }
        },
        {
            "resource": {
                "resourceType": "MedicationDispense",
                "id": "smart-MedicationDispense-1230",
                "text": {
                    "div": "<div>\n      Dispensed 7 tablets = 7 day supply of Ciprofloxacin 3 MG/ML / Dexamethasone 1 MG/ML Otic Suspension [Ciprodex]\n    </div>",
                    "status": "generated"
                },
                "status": "completed",
                "patient": {
                    "reference": "Patient/smart-1081332"
                },
                "authorizingPrescription": [
                    {
                        "reference": "MedicationOrder/smart-MedicationOrder-106"
                    }
                ],
                "quantity": {
                    "value": 7,
                    "system": "http://unitsofmeasure.org",
                    "code": "{tablets}"
                },
                "daysSupply": {
                    "value": 7,
                    "system": "http://unitsofmeasure.org",
                    "code": "d"
                },
                "whenHandedOver": "2005-03-11",
                "meta": {
                    "tag": [
                        {
                            "system": "https://smarthealthit.org/tags",
                            "code": "smart-8-2017"
                        }
                    ]
                }
            },
            "request": {
                "method": "PUT",
                "url": "MedicationDispense/smart-MedicationDispense-1230"
            }
        },
        {
            "resource": {
                "resourceType": "MedicationOrder",
                "id": "smart-MedicationOrder-107",
                "text": {
                    "div": "<div>\n      Amoxicillin 50 MG/ML Oral Suspension (rxnorm: 239191)\n    </div>",
                    "status": "generated"
                },
                "status": "active",
                "patient": {
                    "reference": "Patient/smart-1081332"
                },
                "dosageInstruction": [
                    {
                        "timing": {
                            "repeat": {
                                "boundsPeriod": {
                                    "start": "2007-06-06"
                                },
                                "frequency": 2,
                                "period": 1,
                                "periodUnits": "d"
                            }
                        },
                        "text": "10 mL bid x 10 days"
                    }
                ],
                "dispenseRequest": {
                    "numberOfRepeatsAllowed": "1",
                    "quantity": {
                        "value": 1,
                        "system": "http://unitsofmeasure.org",
                        "code": "mL"
                    },
                    "expectedSupplyDuration": {
                        "value": 10,
                        "system": "http://unitsofmeasure.org",
                        "code": "d"
                    }
                },
                "meta": {
                    "tag": [
                        {
                            "system": "https://smarthealthit.org/tags",
                            "code": "smart-8-2017"
                        }
                    ]
                }
            },
            "request": {
                "method": "PUT",
                "url": "MedicationOrder/smart-MedicationOrder-107"
            }
        },
        {
            "resource": {
                "resourceType": "MedicationOrder",
                "id": "smart-MedicationOrder-108",
                "text": {
                    "div": "<div>\n      Sulfamethoxazole 40 MG/ML / Trimethoprim 8 MG/ML Oral Suspension [Sulfatrim] (rxnorm: 208406)\n    </div>",
                    "status": "generated"
                },
                "status": "active",
                "patient": {
                    "reference": "Patient/smart-1081332"
                },
                "dosageInstruction": [
                    {
                        "timing": {
                            "repeat": {
                                "boundsPeriod": {
                                    "start": "2007-08-28"
                                },
                                "frequency": 2,
                                "period": 1,
                                "periodUnits": "d"
                            }
                        },
                        "text": "5 mL bid x 10 days"
                    }
                ],
                "dispenseRequest": {
                    "numberOfRepeatsAllowed": "1",
                    "quantity": {
                        "value": 1,
                        "system": "http://unitsofmeasure.org",
                        "code": "mL"
                    },
                    "expectedSupplyDuration": {
                        "value": 10,
                        "system": "http://unitsofmeasure.org",
                        "code": "d"
                    }
                },
                "meta": {
                    "tag": [
                        {
                            "system": "https://smarthealthit.org/tags",
                            "code": "smart-8-2017"
                        }
                    ]
                }
            },
            "request": {
                "method": "PUT",
                "url": "MedicationOrder/smart-MedicationOrder-108"
            }
        },
        {
            "resource": {
                "resourceType": "Condition",
                "id": "smart-Condition-448",
                "text": {
                    "div": "<div>Single liveborn, born in hospital, delivered without mention of cesarean section</div>",
                    "status": "generated"
                },
                "patient": {
                    "reference": "Patient/smart-1081332"
                },
                "code": {
                    "coding": [
                        {
                            "system": "http://snomed.info/sct",
                            "code": "442311008",
                            "display": "Single liveborn, born in hospital, delivered without mention of cesarean section"
                        }
                    ],
                    "text": "Single liveborn, born in hospital, delivered without mention of cesarean section"
                },
                "clinicalStatus": "active",
                "verificationStatus": "confirmed",
                "onsetDateTime": "2004-04-12",
                "meta": {
                    "tag": [
                        {
                            "system": "https://smarthealthit.org/tags",
                            "code": "smart-8-2017"
                        }
                    ]
                }
            },
            "request": {
                "method": "PUT",
                "url": "Condition/smart-Condition-448"
            }
        },
        {
            "resource": {
                "resourceType": "Condition",
                "id": "smart-Condition-449",
                "text": {
                    "div": "<div>Acute upper respiratory infection</div>",
                    "status": "generated"
                },
                "patient": {
                    "reference": "Patient/smart-1081332"
                },
                "code": {
                    "coding": [
                        {
                            "system": "http://snomed.info/sct",
                            "code": "54150009",
                            "display": "Acute upper respiratory infection"
                        }
                    ],
                    "text": "Acute upper respiratory infection"
                },
                "clinicalStatus": "active",
                "verificationStatus": "confirmed",
                "onsetDateTime": "2004-06-15",
                "meta": {
                    "tag": [
                        {
                            "system": "https://smarthealthit.org/tags",
                            "code": "smart-8-2017"
                        }
                    ]
                }
            },
            "request": {
                "method": "PUT",
                "url": "Condition/smart-Condition-449"
            }
        },
        {
            "resource": {
                "resourceType": "Condition",
                "id": "smart-Condition-450",
                "text": {
                    "div": "<div>Otitis media</div>",
                    "status": "generated"
                },
                "patient": {
                    "reference": "Patient/smart-1081332"
                },
                "code": {
                    "coding": [
                        {
                            "system": "http://snomed.info/sct",
                            "code": "65363002",
                            "display": "Otitis media"
                        }
                    ],
                    "text": "Otitis media"
                },
                "clinicalStatus": "active",
                "verificationStatus": "confirmed",
                "onsetDateTime": "2004-07-13",
                "meta": {
                    "tag": [
                        {
                            "system": "https://smarthealthit.org/tags",
                            "code": "smart-8-2017"
                        }
                    ]
                }
            },
            "request": {
                "method": "PUT",
                "url": "Condition/smart-Condition-450"
            }
        },
        {
            "resource": {
                "resourceType": "Condition",
                "id": "smart-Condition-451",
                "text": {
                    "div": "<div>Other diseases of nasal cavity and sinuses</div>",
                    "status": "generated"
                },
                "patient": {
                    "reference": "Patient/smart-1081332"
                },
                "code": {
                    "coding": [
                        {
                            "system": "http://snomed.info/sct",
                            "code": "68235000",
                            "display": "Other diseases of nasal cavity and sinuses"
                        }
                    ],
                    "text": "Other diseases of nasal cavity and sinuses"
                },
                "clinicalStatus": "active",
                "verificationStatus": "confirmed",
                "onsetDateTime": "2004-10-29",
                "meta": {
                    "tag": [
                        {
                            "system": "https://smarthealthit.org/tags",
                            "code": "smart-8-2017"
                        }
                    ]
                }
            },
            "request": {
                "method": "PUT",
                "url": "Condition/smart-Condition-451"
            }
        },
        {
            "resource": {
                "resourceType": "Condition",
                "id": "smart-Condition-452",
                "text": {
                    "div": "<div>Other and unspecified noninfectious gastroenteritis and colitis</div>",
                    "status": "generated"
                },
                "patient": {
                    "reference": "Patient/smart-1081332"
                },
                "code": {
                    "coding": [
                        {
                            "system": "http://snomed.info/sct",
                            "code": "25374005",
                            "display": "Other and unspecified noninfectious gastroenteritis and colitis"
                        }
                    ],
                    "text": "Other and unspecified noninfectious gastroenteritis and colitis"
                },
                "clinicalStatus": "active",
                "verificationStatus": "confirmed",
                "onsetDateTime": "2004-12-05",
                "meta": {
                    "tag": [
                        {
                            "system": "https://smarthealthit.org/tags",
                            "code": "smart-8-2017"
                        }
                    ]
                }
            },
            "request": {
                "method": "PUT",
                "url": "Condition/smart-Condition-452"
            }
        },
        {
            "resource": {
                "resourceType": "Condition",
                "id": "smart-Condition-453",
                "text": {
                    "div": "<div>Diarrhea</div>",
                    "status": "generated"
                },
                "patient": {
                    "reference": "Patient/smart-1081332"
                },
                "code": {
                    "coding": [
                        {
                            "system": "http://snomed.info/sct",
                            "code": "62315008",
                            "display": "Diarrhea"
                        }
                    ],
                    "text": "Diarrhea"
                },
                "clinicalStatus": "active",
                "verificationStatus": "confirmed",
                "onsetDateTime": "2004-12-07",
                "meta": {
                    "tag": [
                        {
                            "system": "https://smarthealthit.org/tags",
                            "code": "smart-8-2017"
                        }
                    ]
                }
            },
            "request": {
                "method": "PUT",
                "url": "Condition/smart-Condition-453"
            }
        },
        {
            "resource": {
                "resourceType": "Condition",
                "id": "smart-Condition-454",
                "text": {
                    "div": "<div>Fever and other physiologic disturbances of temperature regulation</div>",
                    "status": "generated"
                },
                "patient": {
                    "reference": "Patient/smart-1081332"
                },
                "code": {
                    "coding": [
                        {
                            "system": "http://snomed.info/sct",
                            "code": "386661006",
                            "display": "Fever and other physiologic disturbances of temperature regulation"
                        }
                    ],
                    "text": "Fever and other physiologic disturbances of temperature regulation"
                },
                "clinicalStatus": "active",
                "verificationStatus": "confirmed",
                "onsetDateTime": "2004-12-07",
                "meta": {
                    "tag": [
                        {
                            "system": "https://smarthealthit.org/tags",
                            "code": "smart-8-2017"
                        }
                    ]
                }
            },
            "request": {
                "method": "PUT",
                "url": "Condition/smart-Condition-454"
            }
        },
        {
            "resource": {
                "resourceType": "Condition",
                "id": "smart-Condition-455",
                "text": {
                    "div": "<div>Hypovolemia</div>",
                    "status": "generated"
                },
                "patient": {
                    "reference": "Patient/smart-1081332"
                },
                "code": {
                    "coding": [
                        {
                            "system": "http://snomed.info/sct",
                            "code": "34095006",
                            "display": "Hypovolemia"
                        }
                    ],
                    "text": "Hypovolemia"
                },
                "clinicalStatus": "active",
                "verificationStatus": "confirmed",
                "onsetDateTime": "2004-12-07",
                "meta": {
                    "tag": [
                        {
                            "system": "https://smarthealthit.org/tags",
                            "code": "smart-8-2017"
                        }
                    ]
                }
            },
            "request": {
                "method": "PUT",
                "url": "Condition/smart-Condition-455"
            }
        },
        {
            "resource": {
                "resourceType": "Condition",
                "id": "smart-Condition-456",
                "text": {
                    "div": "<div>Pneumonia</div>",
                    "status": "generated"
                },
                "patient": {
                    "reference": "Patient/smart-1081332"
                },
                "code": {
                    "coding": [
                        {
                            "system": "http://snomed.info/sct",
                            "code": "233604007",
                            "display": "Pneumonia"
                        }
                    ],
                    "text": "Pneumonia"
                },
                "clinicalStatus": "active",
                "verificationStatus": "confirmed",
                "onsetDateTime": "2004-12-07",
                "meta": {
                    "tag": [
                        {
                            "system": "https://smarthealthit.org/tags",
                            "code": "smart-8-2017"
                        }
                    ]
                }
            },
            "request": {
                "method": "PUT",
                "url": "Condition/smart-Condition-456"
            }
        },
        {
            "resource": {
                "resourceType": "Condition",
                "id": "smart-Condition-457",
                "text": {
                    "div": "<div>Vomiting</div>",
                    "status": "generated"
                },
                "patient": {
                    "reference": "Patient/smart-1081332"
                },
                "code": {
                    "coding": [
                        {
                            "system": "http://snomed.info/sct",
                            "code": "422400008",
                            "display": "Vomiting"
                        }
                    ],
                    "text": "Vomiting"
                },
                "clinicalStatus": "active",
                "verificationStatus": "confirmed",
                "onsetDateTime": "2004-12-08",
                "meta": {
                    "tag": [
                        {
                            "system": "https://smarthealthit.org/tags",
                            "code": "smart-8-2017"
                        }
                    ]
                }
            },
            "request": {
                "method": "PUT",
                "url": "Condition/smart-Condition-457"
            }
        },
        {
            "resource": {
                "resourceType": "Condition",
                "id": "smart-Condition-458",
                "text": {
                    "div": "<div>Chronic serous otitis media</div>",
                    "status": "generated"
                },
                "patient": {
                    "reference": "Patient/smart-1081332"
                },
                "code": {
                    "coding": [
                        {
                            "system": "http://snomed.info/sct",
                            "code": "81564005",
                            "display": "Chronic serous otitis media"
                        }
                    ],
                    "text": "Chronic serous otitis media"
                },
                "clinicalStatus": "active",
                "verificationStatus": "confirmed",
                "onsetDateTime": "2005-02-22",
                "meta": {
                    "tag": [
                        {
                            "system": "https://smarthealthit.org/tags",
                            "code": "smart-8-2017"
                        }
                    ]
                }
            },
            "request": {
                "method": "PUT",
                "url": "Condition/smart-Condition-458"
            }
        },
        {
            "resource": {
                "resourceType": "Condition",
                "id": "smart-Condition-459",
                "text": {
                    "div": "<div>Acute secretory otitis media</div>",
                    "status": "generated"
                },
                "patient": {
                    "reference": "Patient/smart-1081332"
                },
                "code": {
                    "coding": [
                        {
                            "system": "http://snomed.info/sct",
                            "code": "35183001",
                            "display": "Acute secretory otitis media"
                        }
                    ],
                    "text": "Acute secretory otitis media"
                },
                "clinicalStatus": "active",
                "verificationStatus": "confirmed",
                "onsetDateTime": "2007-06-20",
                "meta": {
                    "tag": [
                        {
                            "system": "https://smarthealthit.org/tags",
                            "code": "smart-8-2017"
                        }
                    ]
                }
            },
            "request": {
                "method": "PUT",
                "url": "Condition/smart-Condition-459"
            }
        },
        {
            "resource": {
                "resourceType": "Observation",
                "id": "smart-Observation-6-smokingstatus",
                "text": {
                    "div": "<div>Tobacco smoking status: Former smoker</div>",
                    "status": "generated"
                },
                "category": {
                    "coding": [
                        {
                            "system": "http://hl7.org/fhir/observation-category",
                            "code": "social-history",
                            "display": "Social History"
                        }
                    ],
                    "text": "Social History"
                },
                "code": {
                    "coding": [
                        {
                            "system": "http://loinc.org",
                            "code": "72166-2",
                            "display": "Tobacco smoking status"
                        }
                    ],
                    "text": "Tobacco smoking status"
                },
                "valueCodeableConcept": {
                    "coding": [
                        {
                            "system": "http://snomed.info/sct",
                            "code": "8517006",
                            "display": "Former smoker"
                        }
                    ],
                    "text": "Former smoker"
                },
                "status": "final",
                "subject": {
                    "reference": "Patient/smart-1081332"
                },
                "meta": {
                    "tag": [
                        {
                            "system": "https://smarthealthit.org/tags",
                            "code": "smart-8-2017"
                        }
                    ]
                }
            },
            "request": {
                "method": "PUT",
                "url": "Observation/smart-Observation-6-smokingstatus"
            }
        },
        {
            "resource": {
                "resourceType": "List",
                "id": "smart-List-20",
                "text": {
                    "div": "<div>No known allergies</div>",
                    "status": "generated"
                },
                "code": {
                    "coding": [
                        {
                            "system": "http://loinc.org/",
                            "code": "52473-6",
                            "display": "Allergy"
                        }
                    ],
                    "text": "Allergy"
                },
                "subject": {
                    "reference": "Patient/smart-1081332"
                },
                "date": "2000",
                "mode": "snapshot",
                "emptyReason": {
                    "coding": [
                        {
                            "system": "http://hl7.org/fhir/list-empty-reason",
                            "code": "nilknown",
                            "display": "Nil Known"
                        }
                    ],
                    "text": "Nil Known"
                },
                "meta": {
                    "tag": [
                        {
                            "system": "https://smarthealthit.org/tags",
                            "code": "smart-8-2017"
                        }
                    ]
                }
            },
            "request": {
                "method": "PUT",
                "url": "List/smart-List-20"
            }
        }
    ]
}