{
    "resourceType": "Bundle",
    "type": "transaction",
    "entry": [
        {
            "resource": {
                "resourceType": "Patient",
                "id": "smart-1134281",
                "text": {
                    "div": "<div><p>Patrick Taylor</p></div>",
                    "status": "generated"
                },
                "identifier": [
                    {
                        "use": "usual",
                        "system": "http://hospital.smarthealthit.org",
                        "value": "1134281"
                    }
                ],
                "name": [
                    {
                        "use": "official",
                        "family": [
                            "Taylor"
                        ],
                        "given": [
                            "Patrick",
                            "G."
                        ]
                    }
                ],
                "telecom": [
                    {
                        "system": "phone",
                        "value": "800-539-3986",
                        "use": "home"
                    },
                    {
                        "system": "email",
                        "value": "patrick.taylor@example.com"
                    }
                ],
                "gender": "male",
                "birthDate": "2004-10-15",
                "address": [
                    {
                        "use": "home",
                        "line": [
                            "24 Pine RdApt 3"
                        ],
                        "city": "Bixby",
                        "state": "OK",
                        "country": "USA"
                    }
                ],
                "active": true
            },
            "request": {
                "method": "PUT",
                "url": "Patient/smart-1134281"
            }
        },
        {
            "resource": {
                "resourceType": "Observation",
                "id": "smart-Observation-1681-lab",
                "text": {
                    "div": "<div>2005-07-04: Base excess Bld-sCnc = -6 mmol/L</div>",
                    "status": "generated"
                },
                "category": {
                    "coding": [
                        {
                            "system": "http://hl7.org/fhir/observation-category",
                            "code": "laboratory",
                            "display": "Laboratory"
                        }
                    ],
                    "text": "Laboratory"
                },
                "code": {
                    "coding": [
                        {
                            "system": "http://loinc.org",
                            "code": "11555-0",
                            "display": "Base excess Bld-sCnc"
                        }
                    ],
                    "text": "Base excess Bld-sCnc"
                },
                "valueQuantity": {
                    "value": -6,
                    "system": "http://unitsofmeasure.org"
                },
                "status": "final",
                "subject": {
                    "reference": "Patient/smart-1134281"
                }
            },
            "request": {
                "method": "PUT",
                "url": "Observation/smart-Observation-1681-lab"
            }
        },
        {
            "resource": {
                "resourceType": "Observation",
                "id": "smart-Observation-1682-lab",
                "text": {
                    "div": "<div>2005-07-04: CO2 Bld-sCnc = 24 mmol/L</div>",
                    "status": "generated"
                },
                "category": {
                    "coding": [
                        {
                            "system": "http://hl7.org/fhir/observation-category",
                            "code": "laboratory",
                            "display": "Laboratory"
                        }
                    ],
                    "text": "Laboratory"
                },
                "code": {
                    "coding": [
                        {
                            "system": "http://loinc.org",
                            "code": "20565-8",
                            "display": "CO2 Bld-sCnc"
                        }
                    ],
                    "text": "CO2 Bld-sCnc"
                },
                "valueQuantity": {
                    "value": 24,
                    "system": "http://unitsofmeasure.org"
                },
                "status": "final",
                "subject": {
                    "reference": "Patient/smart-1134281"
                }
            },
            "request": {
                "method": "PUT",
                "url": "Observation/smart-Observation-1682-lab"
            }
        },
        {
            "resource": {
                "resourceType": "Observation",
                "id": "smart-Observation-1683-lab",
                "text": {
                    "div": "<div>2005-07-04: SaO2% from pO2 Bld = 92 %</div>",
                    "status": "generated"
                },
                "category": {
                    "coding": [
                        {
                            "system": "http://hl7.org/fhir/observation-category",
                            "code": "laboratory",
                            "display": "Laboratory"
                        }
                    ],
                    "text": "Laboratory"
                },
                "code": {
                    "coding": [
                        {
                            "system": "http://loinc.org",
                            "code": "2713-6",
                            "display": "SaO2% from pO2 Bld"
                        }
                    ],
                    "text": "SaO2% from pO2 Bld"
                },
                "valueQuantity": {
                    "value": 92,
                    "system": "http://unitsofmeasure.org"
                },
                "status": "final",
                "subject": {
                    "reference": "Patient/smart-1134281"
                }
            },
            "request": {
                "method": "PUT",
                "url": "Observation/smart-Observation-1683-lab"
            }
        },
        {
            "resource": {
                "resourceType": "Observation",
                "id": "smart-Observation-1684-lab",
                "text": {
                    "div": "<div>2005-07-04: SaO2% from pO2 Bld = 89 %</div>",
                    "status": "generated"
                },
                "category": {
                    "coding": [
                        {
                            "system": "http://hl7.org/fhir/observation-category",
                            "code": "laboratory",
                            "display": "Laboratory"
                        }
                    ],
                    "text": "Laboratory"
                },
                "code": {
                    "coding": [
                        {
                            "system": "http://loinc.org",
                            "code": "2713-6",
                            "display": "SaO2% from pO2 Bld"
                        }
                    ],
                    "text": "SaO2% from pO2 Bld"
                },
                "valueQuantity": {
                    "value": 89,
                    "system": "http://unitsofmeasure.org"
                },
                "status": "final",
                "subject": {
                    "reference": "Patient/smart-1134281"
                }
            },
            "request": {
                "method": "PUT",
                "url": "Observation/smart-Observation-1684-lab"
            }
        },
        {
            "resource": {
                "resourceType": "Observation",
                "id": "smart-Observation-1685-lab",
                "text": {
                    "div": "<div>2005-07-04: Glucose Bld-mCnc = 71 mg/dL</div>",
                    "status": "generated"
                },
                "category": {
                    "coding": [
                        {
                            "system": "http://hl7.org/fhir/observation-category",
                            "code": "laboratory",
                            "display": "Laboratory"
                        }
                    ],
                    "text": "Laboratory"
                },
                "code": {
                    "coding": [
                        {
                            "system": "http://loinc.org",
                            "code": "2339-0",
                            "display": "Glucose Bld-mCnc"
                        }
                    ],
                    "text": "Glucose Bld-mCnc"
                },
                "valueQuantity": {
                    "value": 71,
                    "system": "http://unitsofmeasure.org"
                },
                "status": "final",
                "subject": {
                    "reference": "Patient/smart-1134281"
                }
            },
            "request": {
                "method": "PUT",
                "url": "Observation/smart-Observation-1685-lab"
            }
        },
        {
            "resource": {
                "resourceType": "Observation",
                "id": "smart-Observation-1686-lab",
                "text": {
                    "div": "<div>2005-07-04: Glucose Bld-mCnc = 109 mg/dL</div>",
                    "status": "generated"
                },
                "category": {
                    "coding": [
                        {
                            "system": "http://hl7.org/fhir/observation-category",
                            "code": "laboratory",
                            "display": "Laboratory"
                        }
                    ],
                    "text": "Laboratory"
                },
                "code": {
                    "coding": [
                        {
                            "system": "http://loinc.org",
                            "code": "2339-0",
                            "display": "Glucose Bld-mCnc"
                        }
                    ],
                    "text": "Glucose Bld-mCnc"
                },
                "valueQuantity": {
                    "value": 109,
                    "system": "http://unitsofmeasure.org"
                },
                "status": "final",
                "subject": {
                    "reference": "Patient/smart-1134281"
                }
            },
            "request": {
                "method": "PUT",
                "url": "Observation/smart-Observation-1686-lab"
            }
        },
        {
            "resource": {
                "resourceType": "Observation",
                "id": "smart-Observation-1687-lab",
                "text": {
                    "div": "<div>2005-07-04: pH Bld = 7.36 [pH]</div>",
                    "status": "generated"
                },
                "category": {
                    "coding": [
                        {
                            "system": "http://hl7.org/fhir/observation-category",
                            "code": "laboratory",
                            "display": "Laboratory"
                        }
                    ],
                    "text": "Laboratory"
                },
                "code": {
                    "coding": [
                        {
                            "system": "http://loinc.org",
                            "code": "11558-4",
                            "display": "pH Bld"
                        }
                    ],
                    "text": "pH Bld"
                },
                "valueQuantity": {
                    "value": 7.36,
                    "system": "http://unitsofmeasure.org"
                },
                "status": "final",
                "subject": {
                    "reference": "Patient/smart-1134281"
                }
            },
            "request": {
                "method": "PUT",
                "url": "Observation/smart-Observation-1687-lab"
            }
        },
        {
            "resource": {
                "resourceType": "Observation",
                "id": "smart-Observation-1688-lab",
                "text": {
                    "div": "<div>2005-07-04: pH Bld = 7.22 [pH]</div>",
                    "status": "generated"
                },
                "category": {
                    "coding": [
                        {
                            "system": "http://hl7.org/fhir/observation-category",
                            "code": "laboratory",
                            "display": "Laboratory"
                        }
                    ],
                    "text": "Laboratory"
                },
                "code": {
                    "coding": [
                        {
                            "system": "http://loinc.org",
                            "code": "11558-4",
                            "display": "pH Bld"
                        }
                    ],
                    "text": "pH Bld"
                },
                "valueQuantity": {
                    "value": 7.22,
                    "system": "http://unitsofmeasure.org"
                },
                "status": "final",
                "subject": {
                    "reference": "Patient/smart-1134281"
                }
            },
            "request": {
                "method": "PUT",
                "url": "Observation/smart-Observation-1688-lab"
            }
        },
        {
            "resource": {
                "resourceType": "Observation",
                "id": "smart-Observation-1689-lab",
                "text": {
                    "div": "<div>2005-07-04: pCO2 Bld = 56 mm[Hg]</div>",
                    "status": "generated"
                },
                "category": {
                    "coding": [
                        {
                            "system": "http://hl7.org/fhir/observation-category",
                            "code": "laboratory",
                            "display": "Laboratory"
                        }
                    ],
                    "text": "Laboratory"
                },
                "code": {
                    "coding": [
                        {
                            "system": "http://loinc.org",
                            "code": "11557-6",
                            "display": "pCO2 Bld"
                        }
                    ],
                    "text": "pCO2 Bld"
                },
                "valueQuantity": {
                    "value": 56,
                    "system": "http://unitsofmeasure.org"
                },
                "status": "final",
                "subject": {
                    "reference": "Patient/smart-1134281"
                }
            },
            "request": {
                "method": "PUT",
                "url": "Observation/smart-Observation-1689-lab"
            }
        },
        {
            "resource": {
                "resourceType": "Observation",
                "id": "smart-Observation-1690-lab",
                "text": {
                    "div": "<div>2005-07-04: pCO2 Bld = 40 mm[Hg]</div>",
                    "status": "generated"
                },
                "category": {
                    "coding": [
                        {
                            "system": "http://hl7.org/fhir/observation-category",
                            "code": "laboratory",
                            "display": "Laboratory"
                        }
                    ],
                    "text": "Laboratory"
                },
                "code": {
                    "coding": [
                        {
                            "system": "http://loinc.org",
                            "code": "11557-6",
                            "display": "pCO2 Bld"
                        }
                    ],
                    "text": "pCO2 Bld"
                },
                "valueQuantity": {
                    "value": 40,
                    "system": "http://unitsofmeasure.org"
                },
                "status": "final",
                "subject": {
                    "reference": "Patient/smart-1134281"
                }
            },
            "request": {
                "method": "PUT",
                "url": "Observation/smart-Observation-1690-lab"
            }
        },
        {
            "resource": {
                "resourceType": "Observation",
                "id": "smart-Observation-1691-lab",
                "text": {
                    "div": "<div>2005-07-04: pO2 Bld = 79 mm[Hg]</div>",
                    "status": "generated"
                },
                "category": {
                    "coding": [
                        {
                            "system": "http://hl7.org/fhir/observation-category",
                            "code": "laboratory",
                            "display": "Laboratory"
                        }
                    ],
                    "text": "Laboratory"
                },
                "code": {
                    "coding": [
                        {
                            "system": "http://loinc.org",
                            "code": "11556-8",
                            "display": "pO2 Bld"
                        }
                    ],
                    "text": "pO2 Bld"
                },
                "valueQuantity": {
                    "value": 79,
                    "system": "http://unitsofmeasure.org"
                },
                "status": "final",
                "subject": {
                    "reference": "Patient/smart-1134281"
                }
            },
            "request": {
                "method": "PUT",
                "url": "Observation/smart-Observation-1691-lab"
            }
        },
        {
            "resource": {
                "resourceType": "Observation",
                "id": "smart-Observation-1692-lab",
                "text": {
                    "div": "<div>2005-07-04: pO2 Bld = 60 mm[Hg]</div>",
                    "status": "generated"
                },
                "category": {
                    "coding": [
                        {
                            "system": "http://hl7.org/fhir/observation-category",
                            "code": "laboratory",
                            "display": "Laboratory"
                        }
                    ],
                    "text": "Laboratory"
                },
                "code": {
                    "coding": [
                        {
                            "system": "http://loinc.org",
                            "code": "11556-8",
                            "display": "pO2 Bld"
                        }
                    ],
                    "text": "pO2 Bld"
                },
                "valueQuantity": {
                    "value": 60,
                    "system": "http://unitsofmeasure.org"
                },
                "status": "final",
                "subject": {
                    "reference": "Patient/smart-1134281"
                }
            },
            "request": {
                "method": "PUT",
                "url": "Observation/smart-Observation-1692-lab"
            }
        },
        {
            "resource": {
                "resourceType": "Observation",
                "id": "smart-Observation-1693-lab",
                "text": {
                    "div": "<div>2005-07-04: HCO3 Bld-sCnc = 23.1 mmol/L</div>",
                    "status": "generated"
                },
                "category": {
                    "coding": [
                        {
                            "system": "http://hl7.org/fhir/observation-category",
                            "code": "laboratory",
                            "display": "Laboratory"
                        }
                    ],
                    "text": "Laboratory"
                },
                "code": {
                    "coding": [
                        {
                            "system": "http://loinc.org",
                            "code": "1959-6",
                            "display": "HCO3 Bld-sCnc"
                        }
                    ],
                    "text": "HCO3 Bld-sCnc"
                },
                "valueQuantity": {
                    "value": 23.1,
                    "system": "http://unitsofmeasure.org"
                },
                "status": "final",
                "subject": {
                    "reference": "Patient/smart-1134281"
                }
            },
            "request": {
                "method": "PUT",
                "url": "Observation/smart-Observation-1693-lab"
            }
        },
        {
            "resource": {
                "resourceType": "Observation",
                "id": "smart-Observation-1694-lab",
                "text": {
                    "div": "<div>2005-07-04: HCO3 Bld-sCnc = 22.8 mmol/L</div>",
                    "status": "generated"
                },
                "category": {
                    "coding": [
                        {
                            "system": "http://hl7.org/fhir/observation-category",
                            "code": "laboratory",
                            "display": "Laboratory"
                        }
                    ],
                    "text": "Laboratory"
                },
                "code": {
                    "coding": [
                        {
                            "system": "http://loinc.org",
                            "code": "1959-6",
                            "display": "HCO3 Bld-sCnc"
                        }
                    ],
                    "text": "HCO3 Bld-sCnc"
                },
                "valueQuantity": {
                    "value": 22.8,
                    "system": "http://unitsofmeasure.org"
                },
                "status": "final",
                "subject": {
                    "reference": "Patient/smart-1134281"
                }
            },
            "request": {
                "method": "PUT",
                "url": "Observation/smart-Observation-1694-lab"
            }
        },
        {
            "resource": {
                "resourceType": "Observation",
                "id": "smart-Observation-1695-lab",
                "text": {
                    "div": "<div>2005-07-04: CO2 Bld-sCnc = 25 mmol/L</div>",
                    "status": "generated"
                },
                "category": {
                    "coding": [
                        {
                            "system": "http://hl7.org/fhir/observation-category",
                            "code": "laboratory",
                            "display": "Laboratory"
                        }
                    ],
                    "text": "Laboratory"
                },
                "code": {
                    "coding": [
                        {
                            "system": "http://loinc.org",
                            "code": "20565-8",
                            "display": "CO2 Bld-sCnc"
                        }
                    ],
                    "text": "CO2 Bld-sCnc"
                },
                "valueQuantity": {
                    "value": 25,
                    "system": "http://unitsofmeasure.org"
                },
                "status": "final",
                "subject": {
                    "reference": "Patient/smart-1134281"
                }
            },
            "request": {
                "method": "PUT",
                "url": "Observation/smart-Observation-1695-lab"
            }
        },
        {
            "resource": {
                "resourceType": "Observation",
                "id": "smart-Observation-1696-lab",
                "text": {
                    "div": "<div>2005-07-04: Base excess Bld-sCnc = -3 mmol/L</div>",
                    "status": "generated"
                },
                "category": {
                    "coding": [
                        {
                            "system": "http://hl7.org/fhir/observation-category",
                            "code": "laboratory",
                            "display": "Laboratory"
                        }
                    ],
                    "text": "Laboratory"
                },
                "code": {
                    "coding": [
                        {
                            "system": "http://loinc.org",
                            "code": "11555-0",
                            "display": "Base excess Bld-sCnc"
                        }
                    ],
                    "text": "Base excess Bld-sCnc"
                },
                "valueQuantity": {
                    "value": -3,
                    "system": "http://unitsofmeasure.org"
                },
                "status": "final",
                "subject": {
                    "reference": "Patient/smart-1134281"
                }
            },
            "request": {
                "method": "PUT",
                "url": "Observation/smart-Observation-1696-lab"
            }
        },
        {
            "resource": {
                "resourceType": "Observation",
                "id": "smart-Observation-1697-lab",
                "extension": [
                    {
                        "url": "http://fhir-registry.smarthealthit.org/StructureDefinition/labs#value-range",
                        "valueString": "['None', 'Few', 'Many']"
                    }
                ],
                "text": {
                    "div": "<div>2005-07-05: Microcytes Bld Ql Smear = Few </div>",
                    "status": "generated"
                },
                "category": {
                    "coding": [
                        {
                            "system": "http://hl7.org/fhir/observation-category",
                            "code": "laboratory",
                            "display": "Laboratory"
                        }
                    ],
                    "text": "Laboratory"
                },
                "code": {
                    "coding": [
                        {
                            "system": "http://loinc.org",
                            "code": "741-9",
                            "display": "Microcytes Bld Ql Smear"
                        }
                    ],
                    "text": "Microcytes Bld Ql Smear"
                },
                "valueString": "Few",
                "status": "final",
                "subject": {
                    "reference": "Patient/smart-1134281"
                }
            },
            "request": {
                "method": "PUT",
                "url": "Observation/smart-Observation-1697-lab"
            }
        },
        {
            "resource": {
                "resourceType": "Observation",
                "id": "smart-Observation-1698-lab",
                "extension": [
                    {
                        "url": "http://fhir-registry.smarthealthit.org/StructureDefinition/labs#value-range",
                        "valueString": "['None', 'Slight', 'Moderate', 'Many']"
                    }
                ],
                "text": {
                    "div": "<div>2005-07-05: Macrocytes Bld Ql Smear = Moderate </div>",
                    "status": "generated"
                },
                "category": {
                    "coding": [
                        {
                            "system": "http://hl7.org/fhir/observation-category",
                            "code": "laboratory",
                            "display": "Laboratory"
                        }
                    ],
                    "text": "Laboratory"
                },
                "code": {
                    "coding": [
                        {
                            "system": "http://loinc.org",
                            "code": "738-5",
                            "display": "Macrocytes Bld Ql Smear"
                        }
                    ],
                    "text": "Macrocytes Bld Ql Smear"
                },
                "valueString": "Moderate",
                "status": "final",
                "subject": {
                    "reference": "Patient/smart-1134281"
                }
            },
            "request": {
                "method": "PUT",
                "url": "Observation/smart-Observation-1698-lab"
            }
        },
        {
            "resource": {
                "resourceType": "Observation",
                "id": "smart-Observation-1699-lab",
                "text": {
                    "div": "<div>2005-07-05: TB Wheal 3D p 5 TU Diam = 1.4 mm</div>",
                    "status": "generated"
                },
                "category": {
                    "coding": [
                        {
                            "system": "http://hl7.org/fhir/observation-category",
                            "code": "laboratory",
                            "display": "Laboratory"
                        }
                    ],
                    "text": "Laboratory"
                },
                "code": {
                    "coding": [
                        {
                            "system": "http://loinc.org",
                            "code": "1648-5",
                            "display": "TB Wheal 3D p 5 TU Diam"
                        }
                    ],
                    "text": "TB Wheal 3D p 5 TU Diam"
                },
                "valueQuantity": {
                    "value": 1.4,
                    "system": "http://unitsofmeasure.org"
                },
                "status": "final",
                "subject": {
                    "reference": "Patient/smart-1134281"
                }
            },
            "request": {
                "method": "PUT",
                "url": "Observation/smart-Observation-1699-lab"
            }
        },
        {
            "resource": {
                "resourceType": "Observation",
                "id": "smart-Observation-1700-lab",
                "text": {
                    "div": "<div>2005-07-05: Platelet # Bld = 248 10*3/uL</div>",
                    "status": "generated"
                },
                "category": {
                    "coding": [
                        {
                            "system": "http://hl7.org/fhir/observation-category",
                            "code": "laboratory",
                            "display": "Laboratory"
                        }
                    ],
                    "text": "Laboratory"
                },
                "code": {
                    "coding": [
                        {
                            "system": "http://loinc.org",
                            "code": "26515-7",
                            "display": "Platelet # Bld"
                        }
                    ],
                    "text": "Platelet # Bld"
                },
                "valueQuantity": {
                    "value": 248,
                    "system": "http://unitsofmeasure.org"
                },
                "status": "final",
                "subject": {
                    "reference": "Patient/smart-1134281"
                }
            },
            "request": {
                "method": "PUT",
                "url": "Observation/smart-Observation-1700-lab"
            }
        },
        {
            "resource": {
                "resourceType": "Observation",
                "id": "smart-Observation-1701-lab",
                "text": {
                    "div": "<div>2005-07-05: MCV RBC = 107 fL</div>",
                    "status": "generated"
                },
                "category": {
                    "coding": [
                        {
                            "system": "http://hl7.org/fhir/observation-category",
                            "code": "laboratory",
                            "display": "Laboratory"
                        }
                    ],
                    "text": "Laboratory"
                },
                "code": {
                    "coding": [
                        {
                            "system": "http://loinc.org",
                            "code": "30428-7",
                            "display": "MCV RBC"
                        }
                    ],
                    "text": "MCV RBC"
                },
                "valueQuantity": {
                    "value": 107,
                    "system": "http://unitsofmeasure.org"
                },
                "status": "final",
                "subject": {
                    "reference": "Patient/smart-1134281"
                }
            },
            "request": {
                "method": "PUT",
                "url": "Observation/smart-Observation-1701-lab"
            }
        },
        {
            "resource": {
                "resourceType": "Observation",
                "id": "smart-Observation-1702-lab",
                "text": {
                    "div": "<div>2005-07-05: MCH RBC Qn Auto = 37.2 pg</div>",
                    "status": "generated"
                },
                "category": {
                    "coding": [
                        {
                            "system": "http://hl7.org/fhir/observation-category",
                            "code": "laboratory",
                            "display": "Laboratory"
                        }
                    ],
                    "text": "Laboratory"
                },
                "code": {
                    "coding": [
                        {
                            "system": "http://loinc.org",
                            "code": "785-6",
                            "display": "MCH RBC Qn Auto"
                        }
                    ],
                    "text": "MCH RBC Qn Auto"
                },
                "valueQuantity": {
                    "value": 37.2,
                    "system": "http://unitsofmeasure.org"
                },
                "status": "final",
                "subject": {
                    "reference": "Patient/smart-1134281"
                }
            },
            "request": {
                "method": "PUT",
                "url": "Observation/smart-Observation-1702-lab"
            }
        },
        {
            "resource": {
                "resourceType": "Observation",
                "id": "smart-Observation-1703-lab",
                "text": {
                    "div": "<div>2005-07-05: MCHC RBC Auto-mCnc = 34.7 g/dL</div>",
                    "status": "generated"
                },
                "category": {
                    "coding": [
                        {
                            "system": "http://hl7.org/fhir/observation-category",
                            "code": "laboratory",
                            "display": "Laboratory"
                        }
                    ],
                    "text": "Laboratory"
                },
                "code": {
                    "coding": [
                        {
                            "system": "http://loinc.org",
                            "code": "786-4",
                            "display": "MCHC RBC Auto-mCnc"
                        }
                    ],
                    "text": "MCHC RBC Auto-mCnc"
                },
                "valueQuantity": {
                    "value": 34.7,
                    "system": "http://unitsofmeasure.org"
                },
                "status": "final",
                "subject": {
                    "reference": "Patient/smart-1134281"
                }
            },
            "request": {
                "method": "PUT",
                "url": "Observation/smart-Observation-1703-lab"
            }
        },
        {
            "resource": {
                "resourceType": "Observation",
                "id": "smart-Observation-1704-lab",
                "extension": [
                    {
                        "url": "http://fhir-registry.smarthealthit.org/StructureDefinition/labs#value-range",
                        "valueString": "['Low', 'Adequate', 'High']"
                    }
                ],
                "text": {
                    "div": "<div>2005-07-05: Platelet Bld Ql Smear = Adequate </div>",
                    "status": "generated"
                },
                "category": {
                    "coding": [
                        {
                            "system": "http://hl7.org/fhir/observation-category",
                            "code": "laboratory",
                            "display": "Laboratory"
                        }
                    ],
                    "text": "Laboratory"
                },
                "code": {
                    "coding": [
                        {
                            "system": "http://loinc.org",
                            "code": "9317-9",
                            "display": "Platelet Bld Ql Smear"
                        }
                    ],
                    "text": "Platelet Bld Ql Smear"
                },
                "valueString": "Adequate",
                "status": "final",
                "subject": {
                    "reference": "Patient/smart-1134281"
                }
            },
            "request": {
                "method": "PUT",
                "url": "Observation/smart-Observation-1704-lab"
            }
        },
        {
            "resource": {
                "resourceType": "Observation",
                "id": "smart-Observation-1705-lab",
                "text": {
                    "div": "<div>2005-07-05: Calcium SerPl-mCnc = 7.7 mg/dL</div>",
                    "status": "generated"
                },
                "category": {
                    "coding": [
                        {
                            "system": "http://hl7.org/fhir/observation-category",
                            "code": "laboratory",
                            "display": "Laboratory"
                        }
                    ],
                    "text": "Laboratory"
                },
                "code": {
                    "coding": [
                        {
                            "system": "http://loinc.org",
                            "code": "17861-6",
                            "display": "Calcium SerPl-mCnc"
                        }
                    ],
                    "text": "Calcium SerPl-mCnc"
                },
                "valueQuantity": {
                    "value": 7.7,
                    "system": "http://unitsofmeasure.org"
                },
                "status": "final",
                "subject": {
                    "reference": "Patient/smart-1134281"
                }
            },
            "request": {
                "method": "PUT",
                "url": "Observation/smart-Observation-1705-lab"
            }
        },
        {
            "resource": {
                "resourceType": "Observation",
                "id": "smart-Observation-1706-lab",
                "text": {
                    "div": "<div>2005-07-05: Sodium SerPl-sCnc = 137 mmol/L</div>",
                    "status": "generated"
                },
                "category": {
                    "coding": [
                        {
                            "system": "http://hl7.org/fhir/observation-category",
                            "code": "laboratory",
                            "display": "Laboratory"
                        }
                    ],
                    "text": "Laboratory"
                },
                "code": {
                    "coding": [
                        {
                            "system": "http://loinc.org",
                            "code": "2951-2",
                            "display": "Sodium SerPl-sCnc"
                        }
                    ],
                    "text": "Sodium SerPl-sCnc"
                },
                "valueQuantity": {
                    "value": 137,
                    "system": "http://unitsofmeasure.org"
                },
                "status": "final",
                "subject": {
                    "reference": "Patient/smart-1134281"
                }
            },
            "request": {
                "method": "PUT",
                "url": "Observation/smart-Observation-1706-lab"
            }
        },
        {
            "resource": {
                "resourceType": "Observation",
                "id": "smart-Observation-1707-lab",
                "text": {
                    "div": "<div>2005-07-05: Creat SerPl-mCnc = 1 mg/dL</div>",
                    "status": "generated"
                },
                "category": {
                    "coding": [
                        {
                            "system": "http://hl7.org/fhir/observation-category",
                            "code": "laboratory",
                            "display": "Laboratory"
                        }
                    ],
                    "text": "Laboratory"
                },
                "code": {
                    "coding": [
                        {
                            "system": "http://loinc.org",
                            "code": "2160-0",
                            "display": "Creat SerPl-mCnc"
                        }
                    ],
                    "text": "Creat SerPl-mCnc"
                },
                "valueQuantity": {
                    "value": 1,
                    "system": "http://unitsofmeasure.org"
                },
                "status": "final",
                "subject": {
                    "reference": "Patient/smart-1134281"
                }
            },
            "request": {
                "method": "PUT",
                "url": "Observation/smart-Observation-1707-lab"
            }
        },
        {
            "resource": {
                "resourceType": "Observation",
                "id": "smart-Observation-1708-lab",
                "text": {
                    "div": "<div>2005-07-05: Potassium SerPl-sCnc = 5.4 mmol/L</div>",
                    "status": "generated"
                },
                "category": {
                    "coding": [
                        {
                            "system": "http://hl7.org/fhir/observation-category",
                            "code": "laboratory",
                            "display": "Laboratory"
                        }
                    ],
                    "text": "Laboratory"
                },
                "code": {
                    "coding": [
                        {
                            "system": "http://loinc.org",
                            "code": "2823-3",
                            "display": "Potassium SerPl-sCnc"
                        }
                    ],
                    "text": "Potassium SerPl-sCnc"
                },
                "valueQuantity": {
                    "value": 5.4,
                    "system": "http://unitsofmeasure.org"
                },
                "status": "final",
                "subject": {
                    "reference": "Patient/smart-1134281"
                }
            },
            "request": {
                "method": "PUT",
                "url": "Observation/smart-Observation-1708-lab"
            }
        },
        {
            "resource": {
                "resourceType": "Observation",
                "id": "smart-Observation-1709-lab",
                "text": {
                    "div": "<div>2005-07-05: Chloride SerPl-sCnc = 105 mmol/L</div>",
                    "status": "generated"
                },
                "category": {
                    "coding": [
                        {
                            "system": "http://hl7.org/fhir/observation-category",
                            "code": "laboratory",
                            "display": "Laboratory"
                        }
                    ],
                    "text": "Laboratory"
                },
                "code": {
                    "coding": [
                        {
                            "system": "http://loinc.org",
                            "code": "2075-0",
                            "display": "Chloride SerPl-sCnc"
                        }
                    ],
                    "text": "Chloride SerPl-sCnc"
                },
                "valueQuantity": {
                    "value": 105,
                    "system": "http://unitsofmeasure.org"
                },
                "status": "final",
                "subject": {
                    "reference": "Patient/smart-1134281"
                }
            },
            "request": {
                "method": "PUT",
                "url": "Observation/smart-Observation-1709-lab"
            }
        },
        {
            "resource": {
                "resourceType": "Observation",
                "id": "smart-Observation-1710-lab",
                "text": {
                    "div": "<div>2005-07-05: CO2 SerPl-sCnc = 24 mmol/L</div>",
                    "status": "generated"
                },
                "category": {
                    "coding": [
                        {
                            "system": "http://hl7.org/fhir/observation-category",
                            "code": "laboratory",
                            "display": "Laboratory"
                        }
                    ],
                    "text": "Laboratory"
                },
                "code": {
                    "coding": [
                        {
                            "system": "http://loinc.org",
                            "code": "2028-9",
                            "display": "CO2 SerPl-sCnc"
                        }
                    ],
                    "text": "CO2 SerPl-sCnc"
                },
                "valueQuantity": {
                    "value": 24,
                    "system": "http://unitsofmeasure.org"
                },
                "status": "final",
                "subject": {
                    "reference": "Patient/smart-1134281"
                }
            },
            "request": {
                "method": "PUT",
                "url": "Observation/smart-Observation-1710-lab"
            }
        },
        {
            "resource": {
                "resourceType": "Observation",
                "id": "smart-Observation-1711-lab",
                "text": {
                    "div": "<div>2005-07-05: Myelocytes NFr Bld = 1 %</div>",
                    "status": "generated"
                },
                "category": {
                    "coding": [
                        {
                            "system": "http://hl7.org/fhir/observation-category",
                            "code": "laboratory",
                            "display": "Laboratory"
                        }
                    ],
                    "text": "Laboratory"
                },
                "code": {
                    "coding": [
                        {
                            "system": "http://loinc.org",
                            "code": "26498-6",
                            "display": "Myelocytes NFr Bld"
                        }
                    ],
                    "text": "Myelocytes NFr Bld"
                },
                "valueQuantity": {
                    "value": 1,
                    "system": "http://unitsofmeasure.org"
                },
                "status": "final",
                "subject": {
                    "reference": "Patient/smart-1134281"
                }
            },
            "request": {
                "method": "PUT",
                "url": "Observation/smart-Observation-1711-lab"
            }
        },
        {
            "resource": {
                "resourceType": "Observation",
                "id": "smart-Observation-1712-lab",
                "text": {
                    "div": "<div>2005-07-05: Neuts Band NFr Bld = 2 %</div>",
                    "status": "generated"
                },
                "category": {
                    "coding": [
                        {
                            "system": "http://hl7.org/fhir/observation-category",
                            "code": "laboratory",
                            "display": "Laboratory"
                        }
                    ],
                    "text": "Laboratory"
                },
                "code": {
                    "coding": [
                        {
                            "system": "http://loinc.org",
                            "code": "26508-2",
                            "display": "Neuts Band NFr Bld"
                        }
                    ],
                    "text": "Neuts Band NFr Bld"
                },
                "valueQuantity": {
                    "value": 2,
                    "system": "http://unitsofmeasure.org"
                },
                "status": "final",
                "subject": {
                    "reference": "Patient/smart-1134281"
                }
            },
            "request": {
                "method": "PUT",
                "url": "Observation/smart-Observation-1712-lab"
            }
        },
        {
            "resource": {
                "resourceType": "Observation",
                "id": "smart-Observation-1713-lab",
                "text": {
                    "div": "<div>2005-07-05: Lymphocytes NFr Bld = 43 %</div>",
                    "status": "generated"
                },
                "category": {
                    "coding": [
                        {
                            "system": "http://hl7.org/fhir/observation-category",
                            "code": "laboratory",
                            "display": "Laboratory"
                        }
                    ],
                    "text": "Laboratory"
                },
                "code": {
                    "coding": [
                        {
                            "system": "http://loinc.org",
                            "code": "26478-8",
                            "display": "Lymphocytes NFr Bld"
                        }
                    ],
                    "text": "Lymphocytes NFr Bld"
                },
                "valueQuantity": {
                    "value": 43,
                    "system": "http://unitsofmeasure.org"
                },
                "status": "final",
                "subject": {
                    "reference": "Patient/smart-1134281"
                }
            },
            "request": {
                "method": "PUT",
                "url": "Observation/smart-Observation-1713-lab"
            }
        },
        {
            "resource": {
                "resourceType": "Observation",
                "id": "smart-Observation-1714-lab",
                "text": {
                    "div": "<div>2005-07-05: Monocytes NFr Bld = 8 %</div>",
                    "status": "generated"
                },
                "category": {
                    "coding": [
                        {
                            "system": "http://hl7.org/fhir/observation-category",
                            "code": "laboratory",
                            "display": "Laboratory"
                        }
                    ],
                    "text": "Laboratory"
                },
                "code": {
                    "coding": [
                        {
                            "system": "http://loinc.org",
                            "code": "26485-3",
                            "display": "Monocytes NFr Bld"
                        }
                    ],
                    "text": "Monocytes NFr Bld"
                },
                "valueQuantity": {
                    "value": 8,
                    "system": "http://unitsofmeasure.org"
                },
                "status": "final",
                "subject": {
                    "reference": "Patient/smart-1134281"
                }
            },
            "request": {
                "method": "PUT",
                "url": "Observation/smart-Observation-1714-lab"
            }
        },
        {
            "resource": {
                "resourceType": "Observation",
                "id": "smart-Observation-1715-lab",
                "text": {
                    "div": "<div>2005-07-05: Eosinophil NFr Bld = 3 %</div>",
                    "status": "generated"
                },
                "category": {
                    "coding": [
                        {
                            "system": "http://hl7.org/fhir/observation-category",
                            "code": "laboratory",
                            "display": "Laboratory"
                        }
                    ],
                    "text": "Laboratory"
                },
                "code": {
                    "coding": [
                        {
                            "system": "http://loinc.org",
                            "code": "26450-7",
                            "display": "Eosinophil NFr Bld"
                        }
                    ],
                    "text": "Eosinophil NFr Bld"
                },
                "valueQuantity": {
                    "value": 3,
                    "system": "http://unitsofmeasure.org"
                },
                "status": "final",
                "subject": {
                    "reference": "Patient/smart-1134281"
                }
            },
            "request": {
                "method": "PUT",
                "url": "Observation/smart-Observation-1715-lab"
            }
        },
        {
            "resource": {
                "resourceType": "Observation",
                "id": "smart-Observation-1716-lab",
                "text": {
                    "div": "<div>2005-07-05: Basophils NFr Bld = 0 %</div>",
                    "status": "generated"
                },
                "category": {
                    "coding": [
                        {
                            "system": "http://hl7.org/fhir/observation-category",
                            "code": "laboratory",
                            "display": "Laboratory"
                        }
                    ],
                    "text": "Laboratory"
                },
                "code": {
                    "coding": [
                        {
                            "system": "http://loinc.org",
                            "code": "30180-4",
                            "display": "Basophils NFr Bld"
                        }
                    ],
                    "text": "Basophils NFr Bld"
                },
                "valueQuantity": {
                    "value": 0,
                    "system": "http://unitsofmeasure.org"
                },
                "status": "final",
                "subject": {
                    "reference": "Patient/smart-1134281"
                }
            },
            "request": {
                "method": "PUT",
                "url": "Observation/smart-Observation-1716-lab"
            }
        },
        {
            "resource": {
                "resourceType": "Observation",
                "id": "smart-Observation-1717-lab",
                "text": {
                    "div": "<div>2005-07-05: Hgb Bld-mCnc = 17 g/dL</div>",
                    "status": "generated"
                },
                "category": {
                    "coding": [
                        {
                            "system": "http://hl7.org/fhir/observation-category",
                            "code": "laboratory",
                            "display": "Laboratory"
                        }
                    ],
                    "text": "Laboratory"
                },
                "code": {
                    "coding": [
                        {
                            "system": "http://loinc.org",
                            "code": "718-7",
                            "display": "Hgb Bld-mCnc"
                        }
                    ],
                    "text": "Hgb Bld-mCnc"
                },
                "valueQuantity": {
                    "value": 17,
                    "system": "http://unitsofmeasure.org"
                },
                "status": "final",
                "subject": {
                    "reference": "Patient/smart-1134281"
                }
            },
            "request": {
                "method": "PUT",
                "url": "Observation/smart-Observation-1717-lab"
            }
        },
        {
            "resource": {
                "resourceType": "Observation",
                "id": "smart-Observation-1718-lab",
                "text": {
                    "div": "<div>2005-07-05: Anion Gap3 SerPl-sCnc = 8 mmol/L</div>",
                    "status": "generated"
                },
                "category": {
                    "coding": [
                        {
                            "system": "http://hl7.org/fhir/observation-category",
                            "code": "laboratory",
                            "display": "Laboratory"
                        }
                    ],
                    "text": "Laboratory"
                },
                "code": {
                    "coding": [
                        {
                            "system": "http://loinc.org",
                            "code": "10466-1",
                            "display": "Anion Gap3 SerPl-sCnc"
                        }
                    ],
                    "text": "Anion Gap3 SerPl-sCnc"
                },
                "valueQuantity": {
                    "value": 8,
                    "system": "http://unitsofmeasure.org"
                },
                "status": "final",
                "subject": {
                    "reference": "Patient/smart-1134281"
                }
            },
            "request": {
                "method": "PUT",
                "url": "Observation/smart-Observation-1718-lab"
            }
        },
        {
            "resource": {
                "resourceType": "Observation",
                "id": "smart-Observation-1719-lab",
                "text": {
                    "div": "<div>2005-07-05: PMV Bld = 7.8 fL</div>",
                    "status": "generated"
                },
                "category": {
                    "coding": [
                        {
                            "system": "http://hl7.org/fhir/observation-category",
                            "code": "laboratory",
                            "display": "Laboratory"
                        }
                    ],
                    "text": "Laboratory"
                },
                "code": {
                    "coding": [
                        {
                            "system": "http://loinc.org",
                            "code": "28542-9",
                            "display": "PMV Bld"
                        }
                    ],
                    "text": "PMV Bld"
                },
                "valueQuantity": {
                    "value": 7.8,
                    "system": "http://unitsofmeasure.org"
                },
                "status": "final",
                "subject": {
                    "reference": "Patient/smart-1134281"
                }
            },
            "request": {
                "method": "PUT",
                "url": "Observation/smart-Observation-1719-lab"
            }
        },
        {
            "resource": {
                "resourceType": "Observation",
                "id": "smart-Observation-1720-lab",
                "text": {
                    "div": "<div>2005-07-05: RDW RBC-Rto = 16.8 %</div>",
                    "status": "generated"
                },
                "category": {
                    "coding": [
                        {
                            "system": "http://hl7.org/fhir/observation-category",
                            "code": "laboratory",
                            "display": "Laboratory"
                        }
                    ],
                    "text": "Laboratory"
                },
                "code": {
                    "coding": [
                        {
                            "system": "http://loinc.org",
                            "code": "30385-9",
                            "display": "RDW RBC-Rto"
                        }
                    ],
                    "text": "RDW RBC-Rto"
                },
                "valueQuantity": {
                    "value": 16.8,
                    "system": "http://unitsofmeasure.org"
                },
                "status": "final",
                "subject": {
                    "reference": "Patient/smart-1134281"
                }
            },
            "request": {
                "method": "PUT",
                "url": "Observation/smart-Observation-1720-lab"
            }
        },
        {
            "resource": {
                "resourceType": "Observation",
                "id": "smart-Observation-1721-lab",
                "text": {
                    "div": "<div>2005-07-05: nRBC/100 WBC Bld-Rto = 5 #/100 WBC</div>",
                    "status": "generated"
                },
                "category": {
                    "coding": [
                        {
                            "system": "http://hl7.org/fhir/observation-category",
                            "code": "laboratory",
                            "display": "Laboratory"
                        }
                    ],
                    "text": "Laboratory"
                },
                "code": {
                    "coding": [
                        {
                            "system": "http://loinc.org",
                            "code": "19048-8",
                            "display": "nRBC/100 WBC Bld-Rto"
                        }
                    ],
                    "text": "nRBC/100 WBC Bld-Rto"
                },
                "valueQuantity": {
                    "value": 5,
                    "system": "http://unitsofmeasure.org"
                },
                "status": "final",
                "subject": {
                    "reference": "Patient/smart-1134281"
                }
            },
            "request": {
                "method": "PUT",
                "url": "Observation/smart-Observation-1721-lab"
            }
        },
        {
            "resource": {
                "resourceType": "Observation",
                "id": "smart-Observation-1722-lab",
                "text": {
                    "div": "<div>2005-07-05: Neutrophils NFr Bld Auto = 40 %</div>",
                    "status": "generated"
                },
                "category": {
                    "coding": [
                        {
                            "system": "http://hl7.org/fhir/observation-category",
                            "code": "laboratory",
                            "display": "Laboratory"
                        }
                    ],
                    "text": "Laboratory"
                },
                "code": {
                    "coding": [
                        {
                            "system": "http://loinc.org",
                            "code": "770-8",
                            "display": "Neutrophils NFr Bld Auto"
                        }
                    ],
                    "text": "Neutrophils NFr Bld Auto"
                },
                "valueQuantity": {
                    "value": 40,
                    "system": "http://unitsofmeasure.org"
                },
                "status": "final",
                "subject": {
                    "reference": "Patient/smart-1134281"
                }
            },
            "request": {
                "method": "PUT",
                "url": "Observation/smart-Observation-1722-lab"
            }
        },
        {
            "resource": {
                "resourceType": "Observation",
                "id": "smart-Observation-1723-lab",
                "text": {
                    "div": "<div>2005-07-05: RBC morph Bld = Normal </div>",
                    "status": "generated"
                },
                "category": {
                    "coding": [
                        {
                            "system": "http://hl7.org/fhir/observation-category",
                            "code": "laboratory",
                            "display": "Laboratory"
                        }
                    ],
                    "text": "Laboratory"
                },
                "code": {
                    "coding": [
                        {
                            "system": "http://loinc.org",
                            "code": "6742-1",
                            "display": "RBC morph Bld"
                        }
                    ],
                    "text": "RBC morph Bld"
                },
                "valueString": "Normal",
                "status": "final",
                "subject": {
                    "reference": "Patient/smart-1134281"
                }
            },
            "request": {
                "method": "PUT",
                "url": "Observation/smart-Observation-1723-lab"
            }
        },
        {
            "resource": {
                "resourceType": "Observation",
                "id": "smart-Observation-1724-lab",
                "text": {
                    "div": "<div>2005-07-05: Glucose Bld-mCnc = 89 mg/dL</div>",
                    "status": "generated"
                },
                "category": {
                    "coding": [
                        {
                            "system": "http://hl7.org/fhir/observation-category",
                            "code": "laboratory",
                            "display": "Laboratory"
                        }
                    ],
                    "text": "Laboratory"
                },
                "code": {
                    "coding": [
                        {
                            "system": "http://loinc.org",
                            "code": "2339-0",
                            "display": "Glucose Bld-mCnc"
                        }
                    ],
                    "text": "Glucose Bld-mCnc"
                },
                "valueQuantity": {
                    "value": 89,
                    "system": "http://unitsofmeasure.org"
                },
                "status": "final",
                "subject": {
                    "reference": "Patient/smart-1134281"
                }
            },
            "request": {
                "method": "PUT",
                "url": "Observation/smart-Observation-1724-lab"
            }
        },
        {
            "resource": {
                "resourceType": "Observation",
                "id": "smart-Observation-1725-lab",
                "text": {
                    "div": "<div>2005-07-05: Glucose Bld-mCnc = 86 mg/dL</div>",
                    "status": "generated"
                },
                "category": {
                    "coding": [
                        {
                            "system": "http://hl7.org/fhir/observation-category",
                            "code": "laboratory",
                            "display": "Laboratory"
                        }
                    ],
                    "text": "Laboratory"
                },
                "code": {
                    "coding": [
                        {
                            "system": "http://loinc.org",
                            "code": "2339-0",
                            "display": "Glucose Bld-mCnc"
                        }
                    ],
                    "text": "Glucose Bld-mCnc"
                },
                "valueQuantity": {
                    "value": 86,
                    "system": "http://unitsofmeasure.org"
                },
                "status": "final",
                "subject": {
                    "reference": "Patient/smart-1134281"
                }
            },
            "request": {
                "method": "PUT",
                "url": "Observation/smart-Observation-1725-lab"
            }
        },
        {
            "resource": {
                "resourceType": "Observation",
                "id": "smart-Observation-1726-lab",
                "text": {
                    "div": "<div>2005-07-05: Glucose Bld-mCnc = 82 mg/dL</div>",
                    "status": "generated"
                },
                "category": {
                    "coding": [
                        {
                            "system": "http://hl7.org/fhir/observation-category",
                            "code": "laboratory",
                            "display": "Laboratory"
                        }
                    ],
                    "text": "Laboratory"
                },
                "code": {
                    "coding": [
                        {
                            "system": "http://loinc.org",
                            "code": "2339-0",
                            "display": "Glucose Bld-mCnc"
                        }
                    ],
                    "text": "Glucose Bld-mCnc"
                },
                "valueQuantity": {
                    "value": 82,
                    "system": "http://unitsofmeasure.org"
                },
                "status": "final",
                "subject": {
                    "reference": "Patient/smart-1134281"
                }
            },
            "request": {
                "method": "PUT",
                "url": "Observation/smart-Observation-1726-lab"
            }
        },
        {
            "resource": {
                "resourceType": "Observation",
                "id": "smart-Observation-1727-lab",
                "text": {
                    "div": "<div>2005-07-05: Glucose Bld-mCnc = 76 mg/dL</div>",
                    "status": "generated"
                },
                "category": {
                    "coding": [
                        {
                            "system": "http://hl7.org/fhir/observation-category",
                            "code": "laboratory",
                            "display": "Laboratory"
                        }
                    ],
                    "text": "Laboratory"
                },
                "code": {
                    "coding": [
                        {
                            "system": "http://loinc.org",
                            "code": "2339-0",
                            "display": "Glucose Bld-mCnc"
                        }
                    ],
                    "text": "Glucose Bld-mCnc"
                },
                "valueQuantity": {
                    "value": 76,
                    "system": "http://unitsofmeasure.org"
                },
                "status": "final",
                "subject": {
                    "reference": "Patient/smart-1134281"
                }
            },
            "request": {
                "method": "PUT",
                "url": "Observation/smart-Observation-1727-lab"
            }
        },
        {
            "resource": {
                "resourceType": "Observation",
                "id": "smart-Observation-1728-lab",
                "text": {
                    "div": "<div>2005-07-05: WBC # Bld = 17.7 10*3/uL</div>",
                    "status": "generated"
                },
                "category": {
                    "coding": [
                        {
                            "system": "http://hl7.org/fhir/observation-category",
                            "code": "laboratory",
                            "display": "Laboratory"
                        }
                    ],
                    "text": "Laboratory"
                },
                "code": {
                    "coding": [
                        {
                            "system": "http://loinc.org",
                            "code": "26464-8",
                            "display": "WBC # Bld"
                        }
                    ],
                    "text": "WBC # Bld"
                },
                "valueQuantity": {
                    "value": 17.7,
                    "system": "http://unitsofmeasure.org"
                },
                "status": "final",
                "subject": {
                    "reference": "Patient/smart-1134281"
                }
            },
            "request": {
                "method": "PUT",
                "url": "Observation/smart-Observation-1728-lab"
            }
        },
        {
            "resource": {
                "resourceType": "Observation",
                "id": "smart-Observation-1729-lab",
                "text": {
                    "div": "<div>2005-07-05: RBC # Bld Auto = 4.58 10*6/uL</div>",
                    "status": "generated"
                },
                "category": {
                    "coding": [
                        {
                            "system": "http://hl7.org/fhir/observation-category",
                            "code": "laboratory",
                            "display": "Laboratory"
                        }
                    ],
                    "text": "Laboratory"
                },
                "code": {
                    "coding": [
                        {
                            "system": "http://loinc.org",
                            "code": "789-8",
                            "display": "RBC # Bld Auto"
                        }
                    ],
                    "text": "RBC # Bld Auto"
                },
                "valueQuantity": {
                    "value": 4.58,
                    "system": "http://unitsofmeasure.org"
                },
                "status": "final",
                "subject": {
                    "reference": "Patient/smart-1134281"
                }
            },
            "request": {
                "method": "PUT",
                "url": "Observation/smart-Observation-1729-lab"
            }
        },
        {
            "resource": {
                "resourceType": "Observation",
                "id": "smart-Observation-1730-lab",
                "text": {
                    "div": "<div>2005-07-05: Glucose SerPl-mCnc = 62 mg/dL</div>",
                    "status": "generated"
                },
                "category": {
                    "coding": [
                        {
                            "system": "http://hl7.org/fhir/observation-category",
                            "code": "laboratory",
                            "display": "Laboratory"
                        }
                    ],
                    "text": "Laboratory"
                },
                "code": {
                    "coding": [
                        {
                            "system": "http://loinc.org",
                            "code": "2345-7",
                            "display": "Glucose SerPl-mCnc"
                        }
                    ],
                    "text": "Glucose SerPl-mCnc"
                },
                "valueQuantity": {
                    "value": 62,
                    "system": "http://unitsofmeasure.org"
                },
                "status": "final",
                "subject": {
                    "reference": "Patient/smart-1134281"
                }
            },
            "request": {
                "method": "PUT",
                "url": "Observation/smart-Observation-1730-lab"
            }
        },
        {
            "resource": {
                "resourceType": "Observation",
                "id": "smart-Observation-1731-lab",
                "text": {
                    "div": "<div>2005-07-05: Bilirub SerPl-mCnc = 6.9 mg/dL</div>",
                    "status": "generated"
                },
                "category": {
                    "coding": [
                        {
                            "system": "http://hl7.org/fhir/observation-category",
                            "code": "laboratory",
                            "display": "Laboratory"
                        }
                    ],
                    "text": "Laboratory"
                },
                "code": {
                    "coding": [
                        {
                            "system": "http://loinc.org",
                            "code": "1975-2",
                            "display": "Bilirub SerPl-mCnc"
                        }
                    ],
                    "text": "Bilirub SerPl-mCnc"
                },
                "valueQuantity": {
                    "value": 6.9,
                    "system": "http://unitsofmeasure.org"
                },
                "status": "final",
                "subject": {
                    "reference": "Patient/smart-1134281"
                }
            },
            "request": {
                "method": "PUT",
                "url": "Observation/smart-Observation-1731-lab"
            }
        },
        {
            "resource": {
                "resourceType": "Observation",
                "id": "smart-Observation-1732-lab",
                "text": {
                    "div": "<div>2005-07-05: Bilirub SerPl-mCnc = 5.4 mg/dL</div>",
                    "status": "generated"
                },
                "category": {
                    "coding": [
                        {
                            "system": "http://hl7.org/fhir/observation-category",
                            "code": "laboratory",
                            "display": "Laboratory"
                        }
                    ],
                    "text": "Laboratory"
                },
                "code": {
                    "coding": [
                        {
                            "system": "http://loinc.org",
                            "code": "1975-2",
                            "display": "Bilirub SerPl-mCnc"
                        }
                    ],
                    "text": "Bilirub SerPl-mCnc"
                },
                "valueQuantity": {
                    "value": 5.4,
                    "system": "http://unitsofmeasure.org"
                },
                "status": "final",
                "subject": {
                    "reference": "Patient/smart-1134281"
                }
            },
            "request": {
                "method": "PUT",
                "url": "Observation/smart-Observation-1732-lab"
            }
        },
        {
            "resource": {
                "resourceType": "Observation",
                "id": "smart-Observation-1733-lab",
                "text": {
                    "div": "<div>2005-07-05: BUN SerPl-mCnc = 10 mg/dL</div>",
                    "status": "generated"
                },
                "category": {
                    "coding": [
                        {
                            "system": "http://hl7.org/fhir/observation-category",
                            "code": "laboratory",
                            "display": "Laboratory"
                        }
                    ],
                    "text": "Laboratory"
                },
                "code": {
                    "coding": [
                        {
                            "system": "http://loinc.org",
                            "code": "3094-0",
                            "display": "BUN SerPl-mCnc"
                        }
                    ],
                    "text": "BUN SerPl-mCnc"
                },
                "valueQuantity": {
                    "value": 10,
                    "system": "http://unitsofmeasure.org"
                },
                "status": "final",
                "subject": {
                    "reference": "Patient/smart-1134281"
                }
            },
            "request": {
                "method": "PUT",
                "url": "Observation/smart-Observation-1733-lab"
            }
        },
        {
            "resource": {
                "resourceType": "Observation",
                "id": "smart-Observation-1734-lab",
                "extension": [
                    {
                        "url": "http://fhir-registry.smarthealthit.org/StructureDefinition/labs#value-range",
                        "valueString": "['None', 'Slight', 'Moderate', 'Many']"
                    }
                ],
                "text": {
                    "div": "<div>2005-07-05: Polychromasia Bld Ql Smear = Slight </div>",
                    "status": "generated"
                },
                "category": {
                    "coding": [
                        {
                            "system": "http://hl7.org/fhir/observation-category",
                            "code": "laboratory",
                            "display": "Laboratory"
                        }
                    ],
                    "text": "Laboratory"
                },
                "code": {
                    "coding": [
                        {
                            "system": "http://loinc.org",
                            "code": "10378-8",
                            "display": "Polychromasia Bld Ql Smear"
                        }
                    ],
                    "text": "Polychromasia Bld Ql Smear"
                },
                "valueString": "Slight",
                "status": "final",
                "subject": {
                    "reference": "Patient/smart-1134281"
                }
            },
            "request": {
                "method": "PUT",
                "url": "Observation/smart-Observation-1734-lab"
            }
        },
        {
            "resource": {
                "resourceType": "Observation",
                "id": "smart-Observation-1735-lab",
                "extension": [
                    {
                        "url": "http://fhir-registry.smarthealthit.org/StructureDefinition/labs#value-range",
                        "valueString": "['None', 'Few', 'Many']"
                    }
                ],
                "text": {
                    "div": "<div>2005-07-05: Ovalocytes Bld Ql Smear = Few </div>",
                    "status": "generated"
                },
                "category": {
                    "coding": [
                        {
                            "system": "http://hl7.org/fhir/observation-category",
                            "code": "laboratory",
                            "display": "Laboratory"
                        }
                    ],
                    "text": "Laboratory"
                },
                "code": {
                    "coding": [
                        {
                            "system": "http://loinc.org",
                            "code": "774-0",
                            "display": "Ovalocytes Bld Ql Smear"
                        }
                    ],
                    "text": "Ovalocytes Bld Ql Smear"
                },
                "valueString": "Few",
                "status": "final",
                "subject": {
                    "reference": "Patient/smart-1134281"
                }
            },
            "request": {
                "method": "PUT",
                "url": "Observation/smart-Observation-1735-lab"
            }
        },
        {
            "resource": {
                "resourceType": "Observation",
                "id": "smart-Observation-1736-lab",
                "extension": [
                    {
                        "url": "http://fhir-registry.smarthealthit.org/StructureDefinition/labs#value-range",
                        "valueString": "['None', 'Few', 'Many']"
                    }
                ],
                "text": {
                    "div": "<div>2005-07-05: Schistocytes Bld Ql Smear = None </div>",
                    "status": "generated"
                },
                "category": {
                    "coding": [
                        {
                            "system": "http://hl7.org/fhir/observation-category",
                            "code": "laboratory",
                            "display": "Laboratory"
                        }
                    ],
                    "text": "Laboratory"
                },
                "code": {
                    "coding": [
                        {
                            "system": "http://loinc.org",
                            "code": "800-3",
                            "display": "Schistocytes Bld Ql Smear"
                        }
                    ],
                    "text": "Schistocytes Bld Ql Smear"
                },
                "valueString": "None",
                "status": "final",
                "subject": {
                    "reference": "Patient/smart-1134281"
                }
            },
            "request": {
                "method": "PUT",
                "url": "Observation/smart-Observation-1736-lab"
            }
        },
        {
            "resource": {
                "resourceType": "Observation",
                "id": "smart-Observation-1737-lab",
                "text": {
                    "div": "<div>2005-07-05: Variant Lymphs NFr Bld Manual = 3 %</div>",
                    "status": "generated"
                },
                "category": {
                    "coding": [
                        {
                            "system": "http://hl7.org/fhir/observation-category",
                            "code": "laboratory",
                            "display": "Laboratory"
                        }
                    ],
                    "text": "Laboratory"
                },
                "code": {
                    "coding": [
                        {
                            "system": "http://loinc.org",
                            "code": "735-1",
                            "display": "Variant Lymphs NFr Bld Manual"
                        }
                    ],
                    "text": "Variant Lymphs NFr Bld Manual"
                },
                "valueQuantity": {
                    "value": 3,
                    "system": "http://unitsofmeasure.org"
                },
                "status": "final",
                "subject": {
                    "reference": "Patient/smart-1134281"
                }
            },
            "request": {
                "method": "PUT",
                "url": "Observation/smart-Observation-1737-lab"
            }
        },
        {
            "resource": {
                "resourceType": "Observation",
                "id": "smart-Observation-1738-lab",
                "text": {
                    "div": "<div>2005-07-06: Bilirub SerPl-mCnc = 10.2 mg/dL</div>",
                    "status": "generated"
                },
                "category": {
                    "coding": [
                        {
                            "system": "http://hl7.org/fhir/observation-category",
                            "code": "laboratory",
                            "display": "Laboratory"
                        }
                    ],
                    "text": "Laboratory"
                },
                "code": {
                    "coding": [
                        {
                            "system": "http://loinc.org",
                            "code": "1975-2",
                            "display": "Bilirub SerPl-mCnc"
                        }
                    ],
                    "text": "Bilirub SerPl-mCnc"
                },
                "valueQuantity": {
                    "value": 10.2,
                    "system": "http://unitsofmeasure.org"
                },
                "status": "final",
                "subject": {
                    "reference": "Patient/smart-1134281"
                }
            },
            "request": {
                "method": "PUT",
                "url": "Observation/smart-Observation-1738-lab"
            }
        },
        {
            "resource": {
                "resourceType": "Observation",
                "id": "smart-Observation-1739-lab",
                "text": {
                    "div": "<div>2005-07-06: Bilirub SerPl-mCnc = 10.1 mg/dL</div>",
                    "status": "generated"
                },
                "category": {
                    "coding": [
                        {
                            "system": "http://hl7.org/fhir/observation-category",
                            "code": "laboratory",
                            "display": "Laboratory"
                        }
                    ],
                    "text": "Laboratory"
                },
                "code": {
                    "coding": [
                        {
                            "system": "http://loinc.org",
                            "code": "1975-2",
                            "display": "Bilirub SerPl-mCnc"
                        }
                    ],
                    "text": "Bilirub SerPl-mCnc"
                },
                "valueQuantity": {
                    "value": 10.1,
                    "system": "http://unitsofmeasure.org"
                },
                "status": "final",
                "subject": {
                    "reference": "Patient/smart-1134281"
                }
            },
            "request": {
                "method": "PUT",
                "url": "Observation/smart-Observation-1739-lab"
            }
        },
        {
            "resource": {
                "resourceType": "Observation",
                "id": "smart-Observation-1740-lab",
                "text": {
                    "div": "<div>2005-07-06: Glucose Bld-mCnc = 60 mg/dL</div>",
                    "status": "generated"
                },
                "category": {
                    "coding": [
                        {
                            "system": "http://hl7.org/fhir/observation-category",
                            "code": "laboratory",
                            "display": "Laboratory"
                        }
                    ],
                    "text": "Laboratory"
                },
                "code": {
                    "coding": [
                        {
                            "system": "http://loinc.org",
                            "code": "2339-0",
                            "display": "Glucose Bld-mCnc"
                        }
                    ],
                    "text": "Glucose Bld-mCnc"
                },
                "valueQuantity": {
                    "value": 60,
                    "system": "http://unitsofmeasure.org"
                },
                "status": "final",
                "subject": {
                    "reference": "Patient/smart-1134281"
                }
            },
            "request": {
                "method": "PUT",
                "url": "Observation/smart-Observation-1740-lab"
            }
        },
        {
            "resource": {
                "resourceType": "Observation",
                "id": "smart-Observation-1741-lab",
                "text": {
                    "div": "<div>2005-07-06: Glucose Bld-mCnc = 93 mg/dL</div>",
                    "status": "generated"
                },
                "category": {
                    "coding": [
                        {
                            "system": "http://hl7.org/fhir/observation-category",
                            "code": "laboratory",
                            "display": "Laboratory"
                        }
                    ],
                    "text": "Laboratory"
                },
                "code": {
                    "coding": [
                        {
                            "system": "http://loinc.org",
                            "code": "2339-0",
                            "display": "Glucose Bld-mCnc"
                        }
                    ],
                    "text": "Glucose Bld-mCnc"
                },
                "valueQuantity": {
                    "value": 93,
                    "system": "http://unitsofmeasure.org"
                },
                "status": "final",
                "subject": {
                    "reference": "Patient/smart-1134281"
                }
            },
            "request": {
                "method": "PUT",
                "url": "Observation/smart-Observation-1741-lab"
            }
        },
        {
            "resource": {
                "resourceType": "Observation",
                "id": "smart-Observation-1742-lab",
                "extension": [
                    {
                        "url": "http://fhir-registry.smarthealthit.org/StructureDefinition/labs#value-range",
                        "valueString": "['Normal', 'Abnormal']"
                    }
                ],
                "text": {
                    "div": "<div>2005-07-07: Biotinidase DBS Ql = Normal </div>",
                    "status": "generated"
                },
                "category": {
                    "coding": [
                        {
                            "system": "http://hl7.org/fhir/observation-category",
                            "code": "laboratory",
                            "display": "Laboratory"
                        }
                    ],
                    "text": "Laboratory"
                },
                "code": {
                    "coding": [
                        {
                            "system": "http://loinc.org",
                            "code": "38478-4",
                            "display": "Biotinidase DBS Ql"
                        }
                    ],
                    "text": "Biotinidase DBS Ql"
                },
                "valueString": "Normal",
                "status": "final",
                "subject": {
                    "reference": "Patient/smart-1134281"
                }
            },
            "request": {
                "method": "PUT",
                "url": "Observation/smart-Observation-1742-lab"
            }
        },
        {
            "resource": {
                "resourceType": "Observation",
                "id": "smart-Observation-1743-lab",
                "extension": [
                    {
                        "url": "http://fhir-registry.smarthealthit.org/StructureDefinition/labs#value-range",
                        "valueString": "['Normal', 'Abnormal']"
                    }
                ],
                "text": {
                    "div": "<div>2005-07-07: Phe DBS Ql = Normal </div>",
                    "status": "generated"
                },
                "category": {
                    "coding": [
                        {
                            "system": "http://hl7.org/fhir/observation-category",
                            "code": "laboratory",
                            "display": "Laboratory"
                        }
                    ],
                    "text": "Laboratory"
                },
                "code": {
                    "coding": [
                        {
                            "system": "http://loinc.org",
                            "code": "29571-7",
                            "display": "Phe DBS Ql"
                        }
                    ],
                    "text": "Phe DBS Ql"
                },
                "valueString": "Normal",
                "status": "final",
                "subject": {
                    "reference": "Patient/smart-1134281"
                }
            },
            "request": {
                "method": "PUT",
                "url": "Observation/smart-Observation-1743-lab"
            }
        },
        {
            "resource": {
                "resourceType": "Observation",
                "id": "smart-Observation-1744-lab",
                "text": {
                    "div": "<div>2005-07-07: Bilirub SerPl-mCnc = 8.6 mg/dL</div>",
                    "status": "generated"
                },
                "category": {
                    "coding": [
                        {
                            "system": "http://hl7.org/fhir/observation-category",
                            "code": "laboratory",
                            "display": "Laboratory"
                        }
                    ],
                    "text": "Laboratory"
                },
                "code": {
                    "coding": [
                        {
                            "system": "http://loinc.org",
                            "code": "1975-2",
                            "display": "Bilirub SerPl-mCnc"
                        }
                    ],
                    "text": "Bilirub SerPl-mCnc"
                },
                "valueQuantity": {
                    "value": 8.6,
                    "system": "http://unitsofmeasure.org"
                },
                "status": "final",
                "subject": {
                    "reference": "Patient/smart-1134281"
                }
            },
            "request": {
                "method": "PUT",
                "url": "Observation/smart-Observation-1744-lab"
            }
        },
        {
            "resource": {
                "resourceType": "Observation",
                "id": "smart-Observation-1745-lab",
                "text": {
                    "div": "<div>2005-07-07: Bilirub SerPl-mCnc = 8.3 mg/dL</div>",
                    "status": "generated"
                },
                "category": {
                    "coding": [
                        {
                            "system": "http://hl7.org/fhir/observation-category",
                            "code": "laboratory",
                            "display": "Laboratory"
                        }
                    ],
                    "text": "Laboratory"
                },
                "code": {
                    "coding": [
                        {
                            "system": "http://loinc.org",
                            "code": "1975-2",
                            "display": "Bilirub SerPl-mCnc"
                        }
                    ],
                    "text": "Bilirub SerPl-mCnc"
                },
                "valueQuantity": {
                    "value": 8.3,
                    "system": "http://unitsofmeasure.org"
                },
                "status": "final",
                "subject": {
                    "reference": "Patient/smart-1134281"
                }
            },
            "request": {
                "method": "PUT",
                "url": "Observation/smart-Observation-1745-lab"
            }
        },
        {
            "resource": {
                "resourceType": "Observation",
                "id": "smart-Observation-1746-lab",
                "text": {
                    "div": "<div>2005-07-08: Bilirub SerPl-mCnc = 11.3 mg/dL</div>",
                    "status": "generated"
                },
                "category": {
                    "coding": [
                        {
                            "system": "http://hl7.org/fhir/observation-category",
                            "code": "laboratory",
                            "display": "Laboratory"
                        }
                    ],
                    "text": "Laboratory"
                },
                "code": {
                    "coding": [
                        {
                            "system": "http://loinc.org",
                            "code": "1975-2",
                            "display": "Bilirub SerPl-mCnc"
                        }
                    ],
                    "text": "Bilirub SerPl-mCnc"
                },
                "valueQuantity": {
                    "value": 11.3,
                    "system": "http://unitsofmeasure.org"
                },
                "status": "final",
                "subject": {
                    "reference": "Patient/smart-1134281"
                }
            },
            "request": {
                "method": "PUT",
                "url": "Observation/smart-Observation-1746-lab"
            }
        },
        {
            "resource": {
                "resourceType": "Observation",
                "id": "smart-Observation-1747-lab",
                "text": {
                    "div": "<div>2005-07-08: Bilirub SerPl-mCnc = 11 mg/dL</div>",
                    "status": "generated"
                },
                "category": {
                    "coding": [
                        {
                            "system": "http://hl7.org/fhir/observation-category",
                            "code": "laboratory",
                            "display": "Laboratory"
                        }
                    ],
                    "text": "Laboratory"
                },
                "code": {
                    "coding": [
                        {
                            "system": "http://loinc.org",
                            "code": "1975-2",
                            "display": "Bilirub SerPl-mCnc"
                        }
                    ],
                    "text": "Bilirub SerPl-mCnc"
                },
                "valueQuantity": {
                    "value": 11,
                    "system": "http://unitsofmeasure.org"
                },
                "status": "final",
                "subject": {
                    "reference": "Patient/smart-1134281"
                }
            },
            "request": {
                "method": "PUT",
                "url": "Observation/smart-Observation-1747-lab"
            }
        },
        {
            "resource": {
                "resourceType": "Observation",
                "id": "smart-Observation-1748-lab",
                "text": {
                    "div": "<div>2005-07-10: Bilirub SerPl-mCnc = 10.5 mg/dL</div>",
                    "status": "generated"
                },
                "category": {
                    "coding": [
                        {
                            "system": "http://hl7.org/fhir/observation-category",
                            "code": "laboratory",
                            "display": "Laboratory"
                        }
                    ],
                    "text": "Laboratory"
                },
                "code": {
                    "coding": [
                        {
                            "system": "http://loinc.org",
                            "code": "1975-2",
                            "display": "Bilirub SerPl-mCnc"
                        }
                    ],
                    "text": "Bilirub SerPl-mCnc"
                },
                "valueQuantity": {
                    "value": 10.5,
                    "system": "http://unitsofmeasure.org"
                },
                "status": "final",
                "subject": {
                    "reference": "Patient/smart-1134281"
                }
            },
            "request": {
                "method": "PUT",
                "url": "Observation/smart-Observation-1748-lab"
            }
        },
        {
            "resource": {
                "resourceType": "MedicationOrder",
                "id": "smart-MedicationOrder-114",
                "text": {
                    "div": "<div>\n      Amoxicillin 50 MG/ML Oral Suspension (rxnorm: 239191)\n    </div>",
                    "status": "generated"
                },
                "status": "active",
                "patient": {
                    "reference": "Patient/smart-1134281"
                },
                "dosageInstruction": [
                    {
                        "timing": {
                            "repeat": {
                                "boundsPeriod": {
                                    "start": "2005-11-28"
                                },
                                "frequency": 2,
                                "period": 1,
                                "periodUnits": "d"
                            }
                        },
                        "text": "10 mL bid x 10 days"
                    }
                ],
                "dispenseRequest": {
                    "numberOfRepeatsAllowed": "1",
                    "quantity": {
                        "value": 1,
                        "system": "http://unitsofmeasure.org",
                        "code": "mL"
                    },
                    "expectedSupplyDuration": {
                        "value": 10,
                        "system": "http://unitsofmeasure.org",
                        "code": "d"
                    }
                }
            },
            "request": {
                "method": "PUT",
                "url": "MedicationOrder/smart-MedicationOrder-114"
            }
        },
        {
            "resource": {
                "resourceType": "MedicationOrder",
                "id": "smart-MedicationOrder-115",
                "text": {
                    "div": "<div>\n      carbinoxamine 1 MG/ML / Dextromethorphan 4 MG/ML / Pseudoephedrine 15 MG/ML Oral Solution [Carbofed DM Drops] (rxnorm: 352027)\n    </div>",
                    "status": "generated"
                },
                "status": "active",
                "patient": {
                    "reference": "Patient/smart-1134281"
                },
                "dosageInstruction": [
                    {
                        "timing": {},
                        "text": {
                            "_value": ""
                        }
                    }
                ],
                "dispenseRequest": {
                    "numberOfRepeatsAllowed": "1",
                    "quantity": {
                        "value": 1,
                        "system": "http://unitsofmeasure.org"
                    },
                    "expectedSupplyDuration": {
                        "value": 0,
                        "system": "http://unitsofmeasure.org",
                        "code": "d"
                    }
                }
            },
            "request": {
                "method": "PUT",
                "url": "MedicationOrder/smart-MedicationOrder-115"
            }
        },
        {
            "resource": {
                "resourceType": "MedicationOrder",
                "id": "smart-MedicationOrder-116",
                "text": {
                    "div": "<div>\n      Metoclopramide 1 MG/ML Oral Solution (rxnorm: 104884)\n    </div>",
                    "status": "generated"
                },
                "status": "active",
                "patient": {
                    "reference": "Patient/smart-1134281"
                },
                "dosageInstruction": [
                    {
                        "timing": {
                            "repeat": {
                                "boundsPeriod": {
                                    "start": "2006-01-08"
                                },
                                "frequency": 4,
                                "period": 1,
                                "periodUnits": "d"
                            }
                        },
                        "text": "4 mL qid"
                    }
                ],
                "dispenseRequest": {
                    "numberOfRepeatsAllowed": "1",
                    "quantity": {
                        "value": 1,
                        "system": "http://unitsofmeasure.org",
                        "code": "mL"
                    },
                    "expectedSupplyDuration": {
                        "value": 30,
                        "system": "http://unitsofmeasure.org",
                        "code": "d"
                    }
                }
            },
            "request": {
                "method": "PUT",
                "url": "MedicationOrder/smart-MedicationOrder-116"
            }
        },
        {
            "resource": {
                "resourceType": "MedicationOrder",
                "id": "smart-MedicationOrder-117",
                "text": {
                    "div": "<div>\n      Ranitidine 15 MG/ML Oral Solution [Zantac] (rxnorm: 755272)\n    </div>",
                    "status": "generated"
                },
                "status": "active",
                "patient": {
                    "reference": "Patient/smart-1134281"
                },
                "dosageInstruction": [
                    {
                        "timing": {
                            "repeat": {
                                "boundsPeriod": {
                                    "start": "2006-01-08"
                                },
                                "frequency": 2,
                                "period": 1,
                                "periodUnits": "d"
                            }
                        },
                        "text": "6 mL bid"
                    }
                ],
                "dispenseRequest": {
                    "numberOfRepeatsAllowed": "1",
                    "quantity": {
                        "value": 1,
                        "system": "http://unitsofmeasure.org",
                        "code": "mL"
                    },
                    "expectedSupplyDuration": {
                        "value": 30,
                        "system": "http://unitsofmeasure.org",
                        "code": "d"
                    }
                }
            },
            "request": {
                "method": "PUT",
                "url": "MedicationOrder/smart-MedicationOrder-117"
            }
        },
        {
            "resource": {
                "resourceType": "MedicationOrder",
                "id": "smart-MedicationOrder-118",
                "text": {
                    "div": "<div>\n      Amoxicillin 80 MG/ML Oral Suspension (rxnorm: 308189)\n    </div>",
                    "status": "generated"
                },
                "status": "active",
                "patient": {
                    "reference": "Patient/smart-1134281"
                },
                "dosageInstruction": [
                    {
                        "timing": {
                            "repeat": {
                                "boundsPeriod": {
                                    "start": "2006-08-31"
                                },
                                "frequency": 2,
                                "period": 1,
                                "periodUnits": "d"
                            }
                        },
                        "text": "7 mL bid x 10 days"
                    }
                ],
                "dispenseRequest": {
                    "numberOfRepeatsAllowed": "1",
                    "quantity": {
                        "value": 1,
                        "system": "http://unitsofmeasure.org",
                        "code": "mL"
                    },
                    "expectedSupplyDuration": {
                        "value": 10,
                        "system": "http://unitsofmeasure.org",
                        "code": "d"
                    }
                }
            },
            "request": {
                "method": "PUT",
                "url": "MedicationOrder/smart-MedicationOrder-118"
            }
        },
        {
            "resource": {
                "resourceType": "MedicationOrder",
                "id": "smart-MedicationOrder-119",
                "text": {
                    "div": "<div>\n      Mupirocin 0.02 MG/MG Topical Ointment (rxnorm: 106346)\n    </div>",
                    "status": "generated"
                },
                "status": "active",
                "patient": {
                    "reference": "Patient/smart-1134281"
                },
                "dosageInstruction": [
                    {
                        "timing": {},
                        "asNeededBoolean": true,
                        "text": "apply nasally prn"
                    }
                ],
                "dispenseRequest": {
                    "numberOfRepeatsAllowed": "1",
                    "quantity": {
                        "value": 1,
                        "system": "http://unitsofmeasure.org"
                    },
                    "expectedSupplyDuration": {
                        "value": 30,
                        "system": "http://unitsofmeasure.org",
                        "code": "d"
                    }
                }
            },
            "request": {
                "method": "PUT",
                "url": "MedicationOrder/smart-MedicationOrder-119"
            }
        },
        {
            "resource": {
                "resourceType": "MedicationDispense",
                "id": "smart-MedicationDispense-373",
                "text": {
                    "div": "<div>\n      Dispensed 22 tablets = 10 day supply of Mupirocin 0.02 MG/MG Topical Ointment\n    </div>",
                    "status": "generated"
                },
                "status": "completed",
                "patient": {
                    "reference": "Patient/smart-1134281"
                },
                "authorizingPrescription": [
                    {
                        "reference": "MedicationOrder/smart-MedicationOrder-119"
                    }
                ],
                "quantity": {
                    "value": 22,
                    "system": "http://unitsofmeasure.org",
                    "code": "{tablets}"
                },
                "daysSupply": {
                    "value": 10,
                    "system": "http://unitsofmeasure.org",
                    "code": "d"
                },
                "whenHandedOver": "2009-04-06"
            },
            "request": {
                "method": "PUT",
                "url": "MedicationDispense/smart-MedicationDispense-373"
            }
        },
        {
            "resource": {
                "resourceType": "MedicationOrder",
                "id": "smart-MedicationOrder-120",
                "text": {
                    "div": "<div>\n      Amoxicillin 40 MG/ML / Clavulanate 5.7 MG/ML Oral Suspension (rxnorm: 617423)\n    </div>",
                    "status": "generated"
                },
                "status": "active",
                "patient": {
                    "reference": "Patient/smart-1134281"
                },
                "dosageInstruction": [
                    {
                        "timing": {
                            "repeat": {
                                "boundsPeriod": {
                                    "start": "2009-06-17"
                                },
                                "frequency": 2,
                                "period": 1,
                                "periodUnits": "d"
                            }
                        },
                        "text": "7 mL bid x 10 days"
                    }
                ],
                "dispenseRequest": {
                    "numberOfRepeatsAllowed": "1",
                    "quantity": {
                        "value": 1,
                        "system": "http://unitsofmeasure.org",
                        "code": "mL"
                    },
                    "expectedSupplyDuration": {
                        "value": 10,
                        "system": "http://unitsofmeasure.org",
                        "code": "d"
                    }
                }
            },
            "request": {
                "method": "PUT",
                "url": "MedicationOrder/smart-MedicationOrder-120"
            }
        },
        {
            "resource": {
                "resourceType": "MedicationDispense",
                "id": "smart-MedicationDispense-379",
                "text": {
                    "div": "<div>\n      Dispensed 100 tablets = 10 day supply of Amoxicillin 40 MG/ML / Clavulanate 5.7 MG/ML Oral Suspension\n    </div>",
                    "status": "generated"
                },
                "status": "completed",
                "patient": {
                    "reference": "Patient/smart-1134281"
                },
                "authorizingPrescription": [
                    {
                        "reference": "MedicationOrder/smart-MedicationOrder-120"
                    }
                ],
                "quantity": {
                    "value": 100,
                    "system": "http://unitsofmeasure.org",
                    "code": "{tablets}"
                },
                "daysSupply": {
                    "value": 10,
                    "system": "http://unitsofmeasure.org",
                    "code": "d"
                },
                "whenHandedOver": "2009-06-17"
            },
            "request": {
                "method": "PUT",
                "url": "MedicationDispense/smart-MedicationDispense-379"
            }
        },
        {
            "resource": {
                "resourceType": "Condition",
                "id": "smart-Condition-222",
                "text": {
                    "div": "<div>Neonatal jaundice associated with preterm delivery</div>",
                    "status": "generated"
                },
                "patient": {
                    "reference": "Patient/smart-1134281"
                },
                "code": {
                    "coding": [
                        {
                            "system": "http://snomed.info/sct",
                            "code": "73749009",
                            "display": "Neonatal jaundice associated with preterm delivery"
                        }
                    ],
                    "text": "Neonatal jaundice associated with preterm delivery"
                },
                "clinicalStatus": "active",
                "verificationStatus": "confirmed",
                "onsetDateTime": "2005-07-04"
            },
            "request": {
                "method": "PUT",
                "url": "Condition/smart-Condition-222"
            }
        },
        {
            "resource": {
                "resourceType": "Condition",
                "id": "smart-Condition-223",
                "text": {
                    "div": "<div>Perinatal cyanotic attacks</div>",
                    "status": "generated"
                },
                "patient": {
                    "reference": "Patient/smart-1134281"
                },
                "code": {
                    "coding": [
                        {
                            "system": "http://snomed.info/sct",
                            "code": "95617006",
                            "display": "Perinatal cyanotic attacks"
                        }
                    ],
                    "text": "Perinatal cyanotic attacks"
                },
                "clinicalStatus": "active",
                "verificationStatus": "confirmed",
                "onsetDateTime": "2005-07-04"
            },
            "request": {
                "method": "PUT",
                "url": "Condition/smart-Condition-223"
            }
        },
        {
            "resource": {
                "resourceType": "Condition",
                "id": "smart-Condition-224",
                "text": {
                    "div": "<div>Respiratory distress syndrome in the newborn</div>",
                    "status": "generated"
                },
                "patient": {
                    "reference": "Patient/smart-1134281"
                },
                "code": {
                    "coding": [
                        {
                            "system": "http://snomed.info/sct",
                            "code": "46775006",
                            "display": "Respiratory distress syndrome in the newborn"
                        }
                    ],
                    "text": "Respiratory distress syndrome in the newborn"
                },
                "clinicalStatus": "active",
                "verificationStatus": "confirmed",
                "onsetDateTime": "2005-07-04"
            },
            "request": {
                "method": "PUT",
                "url": "Condition/smart-Condition-224"
            }
        },
        {
            "resource": {
                "resourceType": "Condition",
                "id": "smart-Condition-225",
                "text": {
                    "div": "<div>Scalp injury</div>",
                    "status": "generated"
                },
                "patient": {
                    "reference": "Patient/smart-1134281"
                },
                "code": {
                    "coding": [
                        {
                            "system": "http://snomed.info/sct",
                            "code": "206200000",
                            "display": "Scalp injury"
                        }
                    ],
                    "text": "Scalp injury"
                },
                "clinicalStatus": "active",
                "verificationStatus": "confirmed",
                "onsetDateTime": "2005-07-04"
            },
            "request": {
                "method": "PUT",
                "url": "Condition/smart-Condition-225"
            }
        },
        {
            "resource": {
                "resourceType": "Condition",
                "id": "smart-Condition-226",
                "text": {
                    "div": "<div>Single liveborn, born in hospital, delivered without mention of cesarean section</div>",
                    "status": "generated"
                },
                "patient": {
                    "reference": "Patient/smart-1134281"
                },
                "code": {
                    "coding": [
                        {
                            "system": "http://snomed.info/sct",
                            "code": "442311008",
                            "display": "Single liveborn, born in hospital, delivered without mention of cesarean section"
                        }
                    ],
                    "text": "Single liveborn, born in hospital, delivered without mention of cesarean section"
                },
                "clinicalStatus": "active",
                "verificationStatus": "confirmed",
                "onsetDateTime": "2005-07-04"
            },
            "request": {
                "method": "PUT",
                "url": "Condition/smart-Condition-226"
            }
        },
        {
            "resource": {
                "resourceType": "Condition",
                "id": "smart-Condition-227",
                "text": {
                    "div": "<div>Neonatal jaundice</div>",
                    "status": "generated"
                },
                "patient": {
                    "reference": "Patient/smart-1134281"
                },
                "code": {
                    "coding": [
                        {
                            "system": "http://snomed.info/sct",
                            "code": "387712008",
                            "display": "Neonatal jaundice"
                        }
                    ],
                    "text": "Neonatal jaundice"
                },
                "clinicalStatus": "active",
                "verificationStatus": "confirmed",
                "onsetDateTime": "2005-07-08"
            },
            "request": {
                "method": "PUT",
                "url": "Condition/smart-Condition-227"
            }
        },
        {
            "resource": {
                "resourceType": "Condition",
                "id": "smart-Condition-228",
                "text": {
                    "div": "<div>Jaundice</div>",
                    "status": "generated"
                },
                "patient": {
                    "reference": "Patient/smart-1134281"
                },
                "code": {
                    "coding": [
                        {
                            "system": "http://snomed.info/sct",
                            "code": "18165001",
                            "display": "Jaundice"
                        }
                    ],
                    "text": "Jaundice"
                },
                "clinicalStatus": "active",
                "verificationStatus": "confirmed",
                "onsetDateTime": "2005-07-10"
            },
            "request": {
                "method": "PUT",
                "url": "Condition/smart-Condition-228"
            }
        },
        {
            "resource": {
                "resourceType": "Condition",
                "id": "smart-Condition-229",
                "text": {
                    "div": "<div>Acute upper respiratory infection</div>",
                    "status": "generated"
                },
                "patient": {
                    "reference": "Patient/smart-1134281"
                },
                "code": {
                    "coding": [
                        {
                            "system": "http://snomed.info/sct",
                            "code": "54150009",
                            "display": "Acute upper respiratory infection"
                        }
                    ],
                    "text": "Acute upper respiratory infection"
                },
                "clinicalStatus": "active",
                "verificationStatus": "confirmed",
                "onsetDateTime": "2005-11-28"
            },
            "request": {
                "method": "PUT",
                "url": "Condition/smart-Condition-229"
            }
        },
        {
            "resource": {
                "resourceType": "Condition",
                "id": "smart-Condition-230",
                "text": {
                    "div": "<div>Gastroesophageal reflux disease</div>",
                    "status": "generated"
                },
                "patient": {
                    "reference": "Patient/smart-1134281"
                },
                "code": {
                    "coding": [
                        {
                            "system": "http://snomed.info/sct",
                            "code": "235595009",
                            "display": "Gastroesophageal reflux disease"
                        }
                    ],
                    "text": "Gastroesophageal reflux disease"
                },
                "clinicalStatus": "active",
                "verificationStatus": "confirmed",
                "onsetDateTime": "2006-02-09"
            },
            "request": {
                "method": "PUT",
                "url": "Condition/smart-Condition-230"
            }
        },
        {
            "resource": {
                "resourceType": "Condition",
                "id": "smart-Condition-231",
                "text": {
                    "div": "<div>Otitis media</div>",
                    "status": "generated"
                },
                "patient": {
                    "reference": "Patient/smart-1134281"
                },
                "code": {
                    "coding": [
                        {
                            "system": "http://snomed.info/sct",
                            "code": "65363002",
                            "display": "Otitis media"
                        }
                    ],
                    "text": "Otitis media"
                },
                "clinicalStatus": "active",
                "verificationStatus": "confirmed",
                "onsetDateTime": "2006-08-31"
            },
            "request": {
                "method": "PUT",
                "url": "Condition/smart-Condition-231"
            }
        },
        {
            "resource": {
                "resourceType": "Condition",
                "id": "smart-Condition-232",
                "text": {
                    "div": "<div>Other and unspecified noninfectious gastroenteritis and colitis</div>",
                    "status": "generated"
                },
                "patient": {
                    "reference": "Patient/smart-1134281"
                },
                "code": {
                    "coding": [
                        {
                            "system": "http://snomed.info/sct",
                            "code": "25374005",
                            "display": "Other and unspecified noninfectious gastroenteritis and colitis"
                        }
                    ],
                    "text": "Other and unspecified noninfectious gastroenteritis and colitis"
                },
                "clinicalStatus": "active",
                "verificationStatus": "confirmed",
                "onsetDateTime": "2006-12-14"
            },
            "request": {
                "method": "PUT",
                "url": "Condition/smart-Condition-232"
            }
        },
        {
            "resource": {
                "resourceType": "Condition",
                "id": "smart-Condition-233",
                "text": {
                    "div": "<div>Acute sinusitis</div>",
                    "status": "generated"
                },
                "patient": {
                    "reference": "Patient/smart-1134281"
                },
                "code": {
                    "coding": [
                        {
                            "system": "http://snomed.info/sct",
                            "code": "36971009",
                            "display": "Acute sinusitis"
                        }
                    ],
                    "text": "Acute sinusitis"
                },
                "clinicalStatus": "active",
                "verificationStatus": "confirmed",
                "onsetDateTime": "2009-06-17"
            },
            "request": {
                "method": "PUT",
                "url": "Condition/smart-Condition-233"
            }
        },
        {
            "resource": {
                "resourceType": "Immunization",
                "id": "smart-Immunization-10",
                "text": {
                    "div": "<div>varicella virus vaccine</div>",
                    "status": "generated"
                },
                "patient": {
                    "reference": "Patient/smart-1134281"
                },
                "date": "2009-03-11",
                "vaccineCode": {
                    "coding": [
                        {
                            "system": "http://www2a.cdc.gov/vaccines/IIS/IISStandards/vaccines.asp?rpt=cvx",
                            "code": "21",
                            "display": "varicella virus vaccine"
                        }
                    ]
                },
                "reported": "false",
                "wasNotGiven": true,
                "explanation": {
                    "reasonNotGiven": [
                        {
                            "coding": [
                                {
                                    "system": "http://smarthealthit.org/terms/codes/ImmunizationRefusalReason#",
                                    "code": "documentedImmunityOrPreviousDisease",
                                    "display": "Documented immunity or previous disease"
                                }
                            ]
                        }
                    ]
                }
            },
            "request": {
                "method": "PUT",
                "url": "Immunization/smart-Immunization-10"
            }
        },
        {
            "resource": {
                "resourceType": "Immunization",
                "id": "smart-Immunization-11",
                "text": {
                    "div": "<div>hepatitis A and hepatitis B vaccine</div>",
                    "status": "generated"
                },
                "patient": {
                    "reference": "Patient/smart-1134281"
                },
                "date": "2005-11-11",
                "vaccineCode": {
                    "coding": [
                        {
                            "system": "http://www2a.cdc.gov/vaccines/IIS/IISStandards/vaccines.asp?rpt=cvx",
                            "code": "104",
                            "display": "hepatitis A and hepatitis B vaccine"
                        }
                    ]
                },
                "reported": "false",
                "wasNotGiven": "false"
            },
            "request": {
                "method": "PUT",
                "url": "Immunization/smart-Immunization-11"
            }
        },
        {
            "resource": {
                "resourceType": "Observation",
                "id": "smart-Observation-9-smokingstatus",
                "text": {
                    "div": "<div>Tobacco smoking status: Never smoker</div>",
                    "status": "generated"
                },
                "category": {
                    "coding": [
                        {
                            "system": "http://hl7.org/fhir/observation-category",
                            "code": "social-history",
                            "display": "Social History"
                        }
                    ],
                    "text": "Social History"
                },
                "code": {
                    "coding": [
                        {
                            "system": "http://loinc.org",
                            "code": "72166-2",
                            "display": "Tobacco smoking status"
                        }
                    ],
                    "text": "Tobacco smoking status"
                },
                "valueCodeableConcept": {
                    "coding": [
                        {
                            "system": "http://snomed.info/sct",
                            "code": "266919005",
                            "display": "Never smoker"
                        }
                    ],
                    "text": "Never smoker"
                },
                "status": "final",
                "subject": {
                    "reference": "Patient/smart-1134281"
                }
            },
            "request": {
                "method": "PUT",
                "url": "Observation/smart-Observation-9-smokingstatus"
            }
        },
        {
            "resource": {
                "resourceType": "List",
                "id": "smart-List-22",
                "text": {
                    "div": "<div>No known allergies</div>",
                    "status": "generated"
                },
                "code": {
                    "coding": [
                        {
                            "system": "http://loinc.org/",
                            "code": "52473-6",
                            "display": "Allergy"
                        }
                    ],
                    "text": "Allergy"
                },
                "subject": {
                    "reference": "Patient/smart-1134281"
                },
                "date": "2000",
                "mode": "snapshot",
                "emptyReason": {
                    "coding": [
                        {
                            "system": "http://hl7.org/fhir/list-empty-reason",
                            "code": "nilknown",
                            "display": "Nil Known"
                        }
                    ],
                    "text": "Nil Known"
                }
            },
            "request": {
                "method": "PUT",
                "url": "List/smart-List-22"
            }
        }
    ]
}