{
    "resourceType": "Bundle",
    "type": "transaction",
    "entry": [
        {
            "resource": {
                "resourceType": "Patient",
                "id": "smart-1642068",
                "text": {
                    "div": "<div><p>Betty Davis</p></div>",
                    "status": "generated"
                },
                "identifier": [
                    {
                        "use": "usual",
                        "system": "http://hospital.smarthealthit.org",
                        "value": "1642068"
                    }
                ],
                "name": [
                    {
                        "use": "official",
                        "family": [
                            "Davis"
                        ],
                        "given": [
                            "Betty",
                            "N."
                        ]
                    }
                ],
                "telecom": [
                    {
                        "system": "phone",
                        "value": "800-430-7442",
                        "use": "mobile"
                    },
                    {
                        "system": "email",
                        "value": "betty.davis@example.com"
                    }
                ],
                "gender": "female",
                "birthDate": "1940-12-14",
                "address": [
                    {
                        "use": "home",
                        "line": [
                            "58 River Ave"
                        ],
                        "city": "Sapulpa",
                        "state": "OK",
                        "country": "USA"
                    }
                ],
                "active": true
            },
            "request": {
                "method": "PUT",
                "url": "Patient/smart-1642068"
            }
        },
        {
            "resource": {
                "resourceType": "Observation",
                "id": "smart-Observation-1643-lab",
                "text": {
                    "div": "<div>2005-02-20: Potassium Bld-sCnc = 3.9 mmol/L</div>",
                    "status": "generated"
                },
                "category": {
                    "coding": [
                        {
                            "system": "http://hl7.org/fhir/observation-category",
                            "code": "laboratory",
                            "display": "Laboratory"
                        }
                    ],
                    "text": "Laboratory"
                },
                "code": {
                    "coding": [
                        {
                            "system": "http://loinc.org",
                            "code": "6298-4",
                            "display": "Potassium Bld-sCnc"
                        }
                    ],
                    "text": "Potassium Bld-sCnc"
                },
                "valueQuantity": {
                    "value": 3.9,
                    "system": "http://unitsofmeasure.org"
                },
                "status": "final",
                "subject": {
                    "reference": "Patient/smart-1642068"
                }
            },
            "request": {
                "method": "PUT",
                "url": "Observation/smart-Observation-1643-lab"
            }
        },
        {
            "resource": {
                "resourceType": "Observation",
                "id": "smart-Observation-1644-lab",
                "text": {
                    "div": "<div>2006-01-01: PMV Bld = 9.2 fL</div>",
                    "status": "generated"
                },
                "category": {
                    "coding": [
                        {
                            "system": "http://hl7.org/fhir/observation-category",
                            "code": "laboratory",
                            "display": "Laboratory"
                        }
                    ],
                    "text": "Laboratory"
                },
                "code": {
                    "coding": [
                        {
                            "system": "http://loinc.org",
                            "code": "28542-9",
                            "display": "PMV Bld"
                        }
                    ],
                    "text": "PMV Bld"
                },
                "valueQuantity": {
                    "value": 9.2,
                    "system": "http://unitsofmeasure.org"
                },
                "status": "final",
                "subject": {
                    "reference": "Patient/smart-1642068"
                }
            },
            "request": {
                "method": "PUT",
                "url": "Observation/smart-Observation-1644-lab"
            }
        },
        {
            "resource": {
                "resourceType": "Observation",
                "id": "smart-Observation-1645-lab",
                "text": {
                    "div": "<div>2006-01-01: RDW RBC-Rto = 13.5 %</div>",
                    "status": "generated"
                },
                "category": {
                    "coding": [
                        {
                            "system": "http://hl7.org/fhir/observation-category",
                            "code": "laboratory",
                            "display": "Laboratory"
                        }
                    ],
                    "text": "Laboratory"
                },
                "code": {
                    "coding": [
                        {
                            "system": "http://loinc.org",
                            "code": "30385-9",
                            "display": "RDW RBC-Rto"
                        }
                    ],
                    "text": "RDW RBC-Rto"
                },
                "valueQuantity": {
                    "value": 13.5,
                    "system": "http://unitsofmeasure.org"
                },
                "status": "final",
                "subject": {
                    "reference": "Patient/smart-1642068"
                }
            },
            "request": {
                "method": "PUT",
                "url": "Observation/smart-Observation-1645-lab"
            }
        },
        {
            "resource": {
                "resourceType": "Observation",
                "id": "smart-Observation-1646-lab",
                "text": {
                    "div": "<div>2006-01-01: WBC # Bld = 8.3 10*3/uL</div>",
                    "status": "generated"
                },
                "category": {
                    "coding": [
                        {
                            "system": "http://hl7.org/fhir/observation-category",
                            "code": "laboratory",
                            "display": "Laboratory"
                        }
                    ],
                    "text": "Laboratory"
                },
                "code": {
                    "coding": [
                        {
                            "system": "http://loinc.org",
                            "code": "26464-8",
                            "display": "WBC # Bld"
                        }
                    ],
                    "text": "WBC # Bld"
                },
                "valueQuantity": {
                    "value": 8.3,
                    "system": "http://unitsofmeasure.org"
                },
                "status": "final",
                "subject": {
                    "reference": "Patient/smart-1642068"
                }
            },
            "request": {
                "method": "PUT",
                "url": "Observation/smart-Observation-1646-lab"
            }
        },
        {
            "resource": {
                "resourceType": "Observation",
                "id": "smart-Observation-1647-lab",
                "text": {
                    "div": "<div>2006-01-01: RBC # Bld Auto = 4.83 10*6/uL</div>",
                    "status": "generated"
                },
                "category": {
                    "coding": [
                        {
                            "system": "http://hl7.org/fhir/observation-category",
                            "code": "laboratory",
                            "display": "Laboratory"
                        }
                    ],
                    "text": "Laboratory"
                },
                "code": {
                    "coding": [
                        {
                            "system": "http://loinc.org",
                            "code": "789-8",
                            "display": "RBC # Bld Auto"
                        }
                    ],
                    "text": "RBC # Bld Auto"
                },
                "valueQuantity": {
                    "value": 4.83,
                    "system": "http://unitsofmeasure.org"
                },
                "status": "final",
                "subject": {
                    "reference": "Patient/smart-1642068"
                }
            },
            "request": {
                "method": "PUT",
                "url": "Observation/smart-Observation-1647-lab"
            }
        },
        {
            "resource": {
                "resourceType": "Observation",
                "id": "smart-Observation-1648-lab",
                "text": {
                    "div": "<div>2006-01-01: Glucose SerPl-mCnc = 94 mg/dL</div>",
                    "status": "generated"
                },
                "category": {
                    "coding": [
                        {
                            "system": "http://hl7.org/fhir/observation-category",
                            "code": "laboratory",
                            "display": "Laboratory"
                        }
                    ],
                    "text": "Laboratory"
                },
                "code": {
                    "coding": [
                        {
                            "system": "http://loinc.org",
                            "code": "2345-7",
                            "display": "Glucose SerPl-mCnc"
                        }
                    ],
                    "text": "Glucose SerPl-mCnc"
                },
                "valueQuantity": {
                    "value": 94,
                    "system": "http://unitsofmeasure.org"
                },
                "status": "final",
                "subject": {
                    "reference": "Patient/smart-1642068"
                }
            },
            "request": {
                "method": "PUT",
                "url": "Observation/smart-Observation-1648-lab"
            }
        },
        {
            "resource": {
                "resourceType": "Observation",
                "id": "smart-Observation-1649-lab",
                "text": {
                    "div": "<div>2006-01-01: BUN SerPl-mCnc = 13 mg/dL</div>",
                    "status": "generated"
                },
                "category": {
                    "coding": [
                        {
                            "system": "http://hl7.org/fhir/observation-category",
                            "code": "laboratory",
                            "display": "Laboratory"
                        }
                    ],
                    "text": "Laboratory"
                },
                "code": {
                    "coding": [
                        {
                            "system": "http://loinc.org",
                            "code": "3094-0",
                            "display": "BUN SerPl-mCnc"
                        }
                    ],
                    "text": "BUN SerPl-mCnc"
                },
                "valueQuantity": {
                    "value": 13,
                    "system": "http://unitsofmeasure.org"
                },
                "status": "final",
                "subject": {
                    "reference": "Patient/smart-1642068"
                }
            },
            "request": {
                "method": "PUT",
                "url": "Observation/smart-Observation-1649-lab"
            }
        },
        {
            "resource": {
                "resourceType": "Observation",
                "id": "smart-Observation-1650-lab",
                "text": {
                    "div": "<div>2006-01-01: Potassium SerPl-sCnc = 3.8 mmol/L</div>",
                    "status": "generated"
                },
                "category": {
                    "coding": [
                        {
                            "system": "http://hl7.org/fhir/observation-category",
                            "code": "laboratory",
                            "display": "Laboratory"
                        }
                    ],
                    "text": "Laboratory"
                },
                "code": {
                    "coding": [
                        {
                            "system": "http://loinc.org",
                            "code": "2823-3",
                            "display": "Potassium SerPl-sCnc"
                        }
                    ],
                    "text": "Potassium SerPl-sCnc"
                },
                "valueQuantity": {
                    "value": 3.8,
                    "system": "http://unitsofmeasure.org"
                },
                "status": "final",
                "subject": {
                    "reference": "Patient/smart-1642068"
                }
            },
            "request": {
                "method": "PUT",
                "url": "Observation/smart-Observation-1650-lab"
            }
        },
        {
            "resource": {
                "resourceType": "Observation",
                "id": "smart-Observation-1651-lab",
                "text": {
                    "div": "<div>2006-01-01: Chloride SerPl-sCnc = 101 mmol/L</div>",
                    "status": "generated"
                },
                "category": {
                    "coding": [
                        {
                            "system": "http://hl7.org/fhir/observation-category",
                            "code": "laboratory",
                            "display": "Laboratory"
                        }
                    ],
                    "text": "Laboratory"
                },
                "code": {
                    "coding": [
                        {
                            "system": "http://loinc.org",
                            "code": "2075-0",
                            "display": "Chloride SerPl-sCnc"
                        }
                    ],
                    "text": "Chloride SerPl-sCnc"
                },
                "valueQuantity": {
                    "value": 101,
                    "system": "http://unitsofmeasure.org"
                },
                "status": "final",
                "subject": {
                    "reference": "Patient/smart-1642068"
                }
            },
            "request": {
                "method": "PUT",
                "url": "Observation/smart-Observation-1651-lab"
            }
        },
        {
            "resource": {
                "resourceType": "Observation",
                "id": "smart-Observation-1652-lab",
                "text": {
                    "div": "<div>2006-01-01: Neutrophils NFr Bld = 61 %</div>",
                    "status": "generated"
                },
                "category": {
                    "coding": [
                        {
                            "system": "http://hl7.org/fhir/observation-category",
                            "code": "laboratory",
                            "display": "Laboratory"
                        }
                    ],
                    "text": "Laboratory"
                },
                "code": {
                    "coding": [
                        {
                            "system": "http://loinc.org",
                            "code": "26511-6",
                            "display": "Neutrophils NFr Bld"
                        }
                    ],
                    "text": "Neutrophils NFr Bld"
                },
                "valueQuantity": {
                    "value": 61,
                    "system": "http://unitsofmeasure.org"
                },
                "status": "final",
                "subject": {
                    "reference": "Patient/smart-1642068"
                }
            },
            "request": {
                "method": "PUT",
                "url": "Observation/smart-Observation-1652-lab"
            }
        },
        {
            "resource": {
                "resourceType": "Observation",
                "id": "smart-Observation-1653-lab",
                "text": {
                    "div": "<div>2006-01-01: MCHC RBC Auto-mCnc = 34.1 g/dL</div>",
                    "status": "generated"
                },
                "category": {
                    "coding": [
                        {
                            "system": "http://hl7.org/fhir/observation-category",
                            "code": "laboratory",
                            "display": "Laboratory"
                        }
                    ],
                    "text": "Laboratory"
                },
                "code": {
                    "coding": [
                        {
                            "system": "http://loinc.org",
                            "code": "786-4",
                            "display": "MCHC RBC Auto-mCnc"
                        }
                    ],
                    "text": "MCHC RBC Auto-mCnc"
                },
                "valueQuantity": {
                    "value": 34.1,
                    "system": "http://unitsofmeasure.org"
                },
                "status": "final",
                "subject": {
                    "reference": "Patient/smart-1642068"
                }
            },
            "request": {
                "method": "PUT",
                "url": "Observation/smart-Observation-1653-lab"
            }
        },
        {
            "resource": {
                "resourceType": "Observation",
                "id": "smart-Observation-1654-lab",
                "text": {
                    "div": "<div>2006-01-01: Monocytes NFr Bld = 7 %</div>",
                    "status": "generated"
                },
                "category": {
                    "coding": [
                        {
                            "system": "http://hl7.org/fhir/observation-category",
                            "code": "laboratory",
                            "display": "Laboratory"
                        }
                    ],
                    "text": "Laboratory"
                },
                "code": {
                    "coding": [
                        {
                            "system": "http://loinc.org",
                            "code": "26485-3",
                            "display": "Monocytes NFr Bld"
                        }
                    ],
                    "text": "Monocytes NFr Bld"
                },
                "valueQuantity": {
                    "value": 7,
                    "system": "http://unitsofmeasure.org"
                },
                "status": "final",
                "subject": {
                    "reference": "Patient/smart-1642068"
                }
            },
            "request": {
                "method": "PUT",
                "url": "Observation/smart-Observation-1654-lab"
            }
        },
        {
            "resource": {
                "resourceType": "Observation",
                "id": "smart-Observation-1655-lab",
                "text": {
                    "div": "<div>2006-01-01: Eosinophil NFr Bld = 5 %</div>",
                    "status": "generated"
                },
                "category": {
                    "coding": [
                        {
                            "system": "http://hl7.org/fhir/observation-category",
                            "code": "laboratory",
                            "display": "Laboratory"
                        }
                    ],
                    "text": "Laboratory"
                },
                "code": {
                    "coding": [
                        {
                            "system": "http://loinc.org",
                            "code": "26450-7",
                            "display": "Eosinophil NFr Bld"
                        }
                    ],
                    "text": "Eosinophil NFr Bld"
                },
                "valueQuantity": {
                    "value": 5,
                    "system": "http://unitsofmeasure.org"
                },
                "status": "final",
                "subject": {
                    "reference": "Patient/smart-1642068"
                }
            },
            "request": {
                "method": "PUT",
                "url": "Observation/smart-Observation-1655-lab"
            }
        },
        {
            "resource": {
                "resourceType": "Observation",
                "id": "smart-Observation-1656-lab",
                "text": {
                    "div": "<div>2006-01-01: Hgb Bld-mCnc = 15.1 g/dL</div>",
                    "status": "generated"
                },
                "category": {
                    "coding": [
                        {
                            "system": "http://hl7.org/fhir/observation-category",
                            "code": "laboratory",
                            "display": "Laboratory"
                        }
                    ],
                    "text": "Laboratory"
                },
                "code": {
                    "coding": [
                        {
                            "system": "http://loinc.org",
                            "code": "718-7",
                            "display": "Hgb Bld-mCnc"
                        }
                    ],
                    "text": "Hgb Bld-mCnc"
                },
                "valueQuantity": {
                    "value": 15.1,
                    "system": "http://unitsofmeasure.org"
                },
                "status": "final",
                "subject": {
                    "reference": "Patient/smart-1642068"
                }
            },
            "request": {
                "method": "PUT",
                "url": "Observation/smart-Observation-1656-lab"
            }
        },
        {
            "resource": {
                "resourceType": "Observation",
                "id": "smart-Observation-1657-lab",
                "text": {
                    "div": "<div>2006-01-01: ALP SerPl-cCnc = 122 U/L</div>",
                    "status": "generated"
                },
                "category": {
                    "coding": [
                        {
                            "system": "http://hl7.org/fhir/observation-category",
                            "code": "laboratory",
                            "display": "Laboratory"
                        }
                    ],
                    "text": "Laboratory"
                },
                "code": {
                    "coding": [
                        {
                            "system": "http://loinc.org",
                            "code": "6768-6",
                            "display": "ALP SerPl-cCnc"
                        }
                    ],
                    "text": "ALP SerPl-cCnc"
                },
                "valueQuantity": {
                    "value": 122,
                    "system": "http://unitsofmeasure.org"
                },
                "status": "final",
                "subject": {
                    "reference": "Patient/smart-1642068"
                }
            },
            "request": {
                "method": "PUT",
                "url": "Observation/smart-Observation-1657-lab"
            }
        },
        {
            "resource": {
                "resourceType": "Observation",
                "id": "smart-Observation-1658-lab",
                "text": {
                    "div": "<div>2006-01-01: Prot SerPl-mCnc = 7.5 g/dL</div>",
                    "status": "generated"
                },
                "category": {
                    "coding": [
                        {
                            "system": "http://hl7.org/fhir/observation-category",
                            "code": "laboratory",
                            "display": "Laboratory"
                        }
                    ],
                    "text": "Laboratory"
                },
                "code": {
                    "coding": [
                        {
                            "system": "http://loinc.org",
                            "code": "2885-2",
                            "display": "Prot SerPl-mCnc"
                        }
                    ],
                    "text": "Prot SerPl-mCnc"
                },
                "valueQuantity": {
                    "value": 7.5,
                    "system": "http://unitsofmeasure.org"
                },
                "status": "final",
                "subject": {
                    "reference": "Patient/smart-1642068"
                }
            },
            "request": {
                "method": "PUT",
                "url": "Observation/smart-Observation-1658-lab"
            }
        },
        {
            "resource": {
                "resourceType": "Observation",
                "id": "smart-Observation-1659-lab",
                "text": {
                    "div": "<div>2006-01-01: Albumin SerPl-mCnc = 4.6 g/dL</div>",
                    "status": "generated"
                },
                "category": {
                    "coding": [
                        {
                            "system": "http://hl7.org/fhir/observation-category",
                            "code": "laboratory",
                            "display": "Laboratory"
                        }
                    ],
                    "text": "Laboratory"
                },
                "code": {
                    "coding": [
                        {
                            "system": "http://loinc.org",
                            "code": "1751-7",
                            "display": "Albumin SerPl-mCnc"
                        }
                    ],
                    "text": "Albumin SerPl-mCnc"
                },
                "valueQuantity": {
                    "value": 4.6,
                    "system": "http://unitsofmeasure.org"
                },
                "status": "final",
                "subject": {
                    "reference": "Patient/smart-1642068"
                }
            },
            "request": {
                "method": "PUT",
                "url": "Observation/smart-Observation-1659-lab"
            }
        },
        {
            "resource": {
                "resourceType": "Observation",
                "id": "smart-Observation-1660-lab",
                "text": {
                    "div": "<div>2006-01-01: Bilirub SerPl-mCnc = 0.5 mg/dL</div>",
                    "status": "generated"
                },
                "category": {
                    "coding": [
                        {
                            "system": "http://hl7.org/fhir/observation-category",
                            "code": "laboratory",
                            "display": "Laboratory"
                        }
                    ],
                    "text": "Laboratory"
                },
                "code": {
                    "coding": [
                        {
                            "system": "http://loinc.org",
                            "code": "1975-2",
                            "display": "Bilirub SerPl-mCnc"
                        }
                    ],
                    "text": "Bilirub SerPl-mCnc"
                },
                "valueQuantity": {
                    "value": 0.5,
                    "system": "http://unitsofmeasure.org"
                },
                "status": "final",
                "subject": {
                    "reference": "Patient/smart-1642068"
                }
            },
            "request": {
                "method": "PUT",
                "url": "Observation/smart-Observation-1660-lab"
            }
        },
        {
            "resource": {
                "resourceType": "Observation",
                "id": "smart-Observation-1661-lab",
                "text": {
                    "div": "<div>2006-01-01: AST SerPl-cCnc = 25 U/L</div>",
                    "status": "generated"
                },
                "category": {
                    "coding": [
                        {
                            "system": "http://hl7.org/fhir/observation-category",
                            "code": "laboratory",
                            "display": "Laboratory"
                        }
                    ],
                    "text": "Laboratory"
                },
                "code": {
                    "coding": [
                        {
                            "system": "http://loinc.org",
                            "code": "1920-8",
                            "display": "AST SerPl-cCnc"
                        }
                    ],
                    "text": "AST SerPl-cCnc"
                },
                "valueQuantity": {
                    "value": 25,
                    "system": "http://unitsofmeasure.org"
                },
                "status": "final",
                "subject": {
                    "reference": "Patient/smart-1642068"
                }
            },
            "request": {
                "method": "PUT",
                "url": "Observation/smart-Observation-1661-lab"
            }
        },
        {
            "resource": {
                "resourceType": "Observation",
                "id": "smart-Observation-1662-lab",
                "text": {
                    "div": "<div>2006-01-01: Sodium SerPl-sCnc = 140 mmol/L</div>",
                    "status": "generated"
                },
                "category": {
                    "coding": [
                        {
                            "system": "http://hl7.org/fhir/observation-category",
                            "code": "laboratory",
                            "display": "Laboratory"
                        }
                    ],
                    "text": "Laboratory"
                },
                "code": {
                    "coding": [
                        {
                            "system": "http://loinc.org",
                            "code": "2951-2",
                            "display": "Sodium SerPl-sCnc"
                        }
                    ],
                    "text": "Sodium SerPl-sCnc"
                },
                "valueQuantity": {
                    "value": 140,
                    "system": "http://unitsofmeasure.org"
                },
                "status": "final",
                "subject": {
                    "reference": "Patient/smart-1642068"
                }
            },
            "request": {
                "method": "PUT",
                "url": "Observation/smart-Observation-1662-lab"
            }
        },
        {
            "resource": {
                "resourceType": "Observation",
                "id": "smart-Observation-1663-lab",
                "text": {
                    "div": "<div>2006-01-01: Creat SerPl-mCnc = 0.9 mg/dL</div>",
                    "status": "generated"
                },
                "category": {
                    "coding": [
                        {
                            "system": "http://hl7.org/fhir/observation-category",
                            "code": "laboratory",
                            "display": "Laboratory"
                        }
                    ],
                    "text": "Laboratory"
                },
                "code": {
                    "coding": [
                        {
                            "system": "http://loinc.org",
                            "code": "2160-0",
                            "display": "Creat SerPl-mCnc"
                        }
                    ],
                    "text": "Creat SerPl-mCnc"
                },
                "valueQuantity": {
                    "value": 0.9,
                    "system": "http://unitsofmeasure.org"
                },
                "status": "final",
                "subject": {
                    "reference": "Patient/smart-1642068"
                }
            },
            "request": {
                "method": "PUT",
                "url": "Observation/smart-Observation-1663-lab"
            }
        },
        {
            "resource": {
                "resourceType": "Observation",
                "id": "smart-Observation-1664-lab",
                "text": {
                    "div": "<div>2006-01-01: ALT SerPl-cCnc = 27 U/L</div>",
                    "status": "generated"
                },
                "category": {
                    "coding": [
                        {
                            "system": "http://hl7.org/fhir/observation-category",
                            "code": "laboratory",
                            "display": "Laboratory"
                        }
                    ],
                    "text": "Laboratory"
                },
                "code": {
                    "coding": [
                        {
                            "system": "http://loinc.org",
                            "code": "1742-6",
                            "display": "ALT SerPl-cCnc"
                        }
                    ],
                    "text": "ALT SerPl-cCnc"
                },
                "valueQuantity": {
                    "value": 27,
                    "system": "http://unitsofmeasure.org"
                },
                "status": "final",
                "subject": {
                    "reference": "Patient/smart-1642068"
                }
            },
            "request": {
                "method": "PUT",
                "url": "Observation/smart-Observation-1664-lab"
            }
        },
        {
            "resource": {
                "resourceType": "Observation",
                "id": "smart-Observation-1665-lab",
                "text": {
                    "div": "<div>2006-01-01: TB Wheal 3D p 5 TU Diam = 0.6 mm</div>",
                    "status": "generated"
                },
                "category": {
                    "coding": [
                        {
                            "system": "http://hl7.org/fhir/observation-category",
                            "code": "laboratory",
                            "display": "Laboratory"
                        }
                    ],
                    "text": "Laboratory"
                },
                "code": {
                    "coding": [
                        {
                            "system": "http://loinc.org",
                            "code": "1648-5",
                            "display": "TB Wheal 3D p 5 TU Diam"
                        }
                    ],
                    "text": "TB Wheal 3D p 5 TU Diam"
                },
                "valueQuantity": {
                    "value": 0.6,
                    "system": "http://unitsofmeasure.org"
                },
                "status": "final",
                "subject": {
                    "reference": "Patient/smart-1642068"
                }
            },
            "request": {
                "method": "PUT",
                "url": "Observation/smart-Observation-1665-lab"
            }
        },
        {
            "resource": {
                "resourceType": "Observation",
                "id": "smart-Observation-1666-lab",
                "text": {
                    "div": "<div>2006-01-01: Platelet # Bld = 313 10*3/uL</div>",
                    "status": "generated"
                },
                "category": {
                    "coding": [
                        {
                            "system": "http://hl7.org/fhir/observation-category",
                            "code": "laboratory",
                            "display": "Laboratory"
                        }
                    ],
                    "text": "Laboratory"
                },
                "code": {
                    "coding": [
                        {
                            "system": "http://loinc.org",
                            "code": "26515-7",
                            "display": "Platelet # Bld"
                        }
                    ],
                    "text": "Platelet # Bld"
                },
                "valueQuantity": {
                    "value": 313,
                    "system": "http://unitsofmeasure.org"
                },
                "status": "final",
                "subject": {
                    "reference": "Patient/smart-1642068"
                }
            },
            "request": {
                "method": "PUT",
                "url": "Observation/smart-Observation-1666-lab"
            }
        },
        {
            "resource": {
                "resourceType": "Observation",
                "id": "smart-Observation-1667-lab",
                "text": {
                    "div": "<div>2006-01-01: MCV RBC = 91.6 fL</div>",
                    "status": "generated"
                },
                "category": {
                    "coding": [
                        {
                            "system": "http://hl7.org/fhir/observation-category",
                            "code": "laboratory",
                            "display": "Laboratory"
                        }
                    ],
                    "text": "Laboratory"
                },
                "code": {
                    "coding": [
                        {
                            "system": "http://loinc.org",
                            "code": "30428-7",
                            "display": "MCV RBC"
                        }
                    ],
                    "text": "MCV RBC"
                },
                "valueQuantity": {
                    "value": 91.6,
                    "system": "http://unitsofmeasure.org"
                },
                "status": "final",
                "subject": {
                    "reference": "Patient/smart-1642068"
                }
            },
            "request": {
                "method": "PUT",
                "url": "Observation/smart-Observation-1667-lab"
            }
        },
        {
            "resource": {
                "resourceType": "Observation",
                "id": "smart-Observation-1668-lab",
                "text": {
                    "div": "<div>2006-01-01: MCH RBC Qn Auto = 31.2 pg</div>",
                    "status": "generated"
                },
                "category": {
                    "coding": [
                        {
                            "system": "http://hl7.org/fhir/observation-category",
                            "code": "laboratory",
                            "display": "Laboratory"
                        }
                    ],
                    "text": "Laboratory"
                },
                "code": {
                    "coding": [
                        {
                            "system": "http://loinc.org",
                            "code": "785-6",
                            "display": "MCH RBC Qn Auto"
                        }
                    ],
                    "text": "MCH RBC Qn Auto"
                },
                "valueQuantity": {
                    "value": 31.2,
                    "system": "http://unitsofmeasure.org"
                },
                "status": "final",
                "subject": {
                    "reference": "Patient/smart-1642068"
                }
            },
            "request": {
                "method": "PUT",
                "url": "Observation/smart-Observation-1668-lab"
            }
        },
        {
            "resource": {
                "resourceType": "Observation",
                "id": "smart-Observation-1669-lab",
                "text": {
                    "div": "<div>2006-01-01: Calcium SerPl-mCnc = 9.9 mg/dL</div>",
                    "status": "generated"
                },
                "category": {
                    "coding": [
                        {
                            "system": "http://hl7.org/fhir/observation-category",
                            "code": "laboratory",
                            "display": "Laboratory"
                        }
                    ],
                    "text": "Laboratory"
                },
                "code": {
                    "coding": [
                        {
                            "system": "http://loinc.org",
                            "code": "17861-6",
                            "display": "Calcium SerPl-mCnc"
                        }
                    ],
                    "text": "Calcium SerPl-mCnc"
                },
                "valueQuantity": {
                    "value": 9.9,
                    "system": "http://unitsofmeasure.org"
                },
                "status": "final",
                "subject": {
                    "reference": "Patient/smart-1642068"
                }
            },
            "request": {
                "method": "PUT",
                "url": "Observation/smart-Observation-1669-lab"
            }
        },
        {
            "resource": {
                "resourceType": "Observation",
                "id": "smart-Observation-1670-lab",
                "text": {
                    "div": "<div>2006-01-01: Lymphocytes NFr Bld = 26 %</div>",
                    "status": "generated"
                },
                "category": {
                    "coding": [
                        {
                            "system": "http://hl7.org/fhir/observation-category",
                            "code": "laboratory",
                            "display": "Laboratory"
                        }
                    ],
                    "text": "Laboratory"
                },
                "code": {
                    "coding": [
                        {
                            "system": "http://loinc.org",
                            "code": "26478-8",
                            "display": "Lymphocytes NFr Bld"
                        }
                    ],
                    "text": "Lymphocytes NFr Bld"
                },
                "valueQuantity": {
                    "value": 26,
                    "system": "http://unitsofmeasure.org"
                },
                "status": "final",
                "subject": {
                    "reference": "Patient/smart-1642068"
                }
            },
            "request": {
                "method": "PUT",
                "url": "Observation/smart-Observation-1670-lab"
            }
        },
        {
            "resource": {
                "resourceType": "MedicationOrder",
                "id": "smart-MedicationOrder-179",
                "text": {
                    "div": "<div>\n      Thyroxine 0.112 MG Oral Tablet [Levoxyl] (rxnorm: 206485)\n    </div>",
                    "status": "generated"
                },
                "status": "active",
                "patient": {
                    "reference": "Patient/smart-1642068"
                },
                "dosageInstruction": [
                    {
                        "timing": {
                            "repeat": {
                                "boundsPeriod": {
                                    "start": "2008-08-07"
                                },
                                "frequency": 1,
                                "period": 1,
                                "periodUnits": "d"
                            }
                        },
                        "text": "1 daily"
                    }
                ],
                "dispenseRequest": {
                    "numberOfRepeatsAllowed": "1",
                    "quantity": {
                        "value": 90,
                        "system": "http://unitsofmeasure.org",
                        "code": "{tablet}"
                    },
                    "expectedSupplyDuration": {
                        "value": 90,
                        "system": "http://unitsofmeasure.org",
                        "code": "d"
                    }
                }
            },
            "request": {
                "method": "PUT",
                "url": "MedicationOrder/smart-MedicationOrder-179"
            }
        },
        {
            "resource": {
                "resourceType": "MedicationDispense",
                "id": "smart-MedicationDispense-60",
                "text": {
                    "div": "<div>\n      Dispensed 90 tablets = 90 day supply of Thyroxine 0.112 MG Oral Tablet [Levoxyl]\n    </div>",
                    "status": "generated"
                },
                "status": "completed",
                "patient": {
                    "reference": "Patient/smart-1642068"
                },
                "authorizingPrescription": [
                    {
                        "reference": "MedicationOrder/smart-MedicationOrder-179"
                    }
                ],
                "quantity": {
                    "value": 90,
                    "system": "http://unitsofmeasure.org",
                    "code": "{tablets}"
                },
                "daysSupply": {
                    "value": 90,
                    "system": "http://unitsofmeasure.org",
                    "code": "d"
                },
                "whenHandedOver": "2009-05-02"
            },
            "request": {
                "method": "PUT",
                "url": "MedicationDispense/smart-MedicationDispense-60"
            }
        },
        {
            "resource": {
                "resourceType": "MedicationDispense",
                "id": "smart-MedicationDispense-57",
                "text": {
                    "div": "<div>\n      Dispensed 90 tablets = 90 day supply of Thyroxine 0.112 MG Oral Tablet [Levoxyl]\n    </div>",
                    "status": "generated"
                },
                "status": "completed",
                "patient": {
                    "reference": "Patient/smart-1642068"
                },
                "authorizingPrescription": [
                    {
                        "reference": "MedicationOrder/smart-MedicationOrder-179"
                    }
                ],
                "quantity": {
                    "value": 90,
                    "system": "http://unitsofmeasure.org",
                    "code": "{tablets}"
                },
                "daysSupply": {
                    "value": 90,
                    "system": "http://unitsofmeasure.org",
                    "code": "d"
                },
                "whenHandedOver": "2008-08-07"
            },
            "request": {
                "method": "PUT",
                "url": "MedicationDispense/smart-MedicationDispense-57"
            }
        },
        {
            "resource": {
                "resourceType": "MedicationDispense",
                "id": "smart-MedicationDispense-59",
                "text": {
                    "div": "<div>\n      Dispensed 90 tablets = 90 day supply of Thyroxine 0.112 MG Oral Tablet [Levoxyl]\n    </div>",
                    "status": "generated"
                },
                "status": "completed",
                "patient": {
                    "reference": "Patient/smart-1642068"
                },
                "authorizingPrescription": [
                    {
                        "reference": "MedicationOrder/smart-MedicationOrder-179"
                    }
                ],
                "quantity": {
                    "value": 90,
                    "system": "http://unitsofmeasure.org",
                    "code": "{tablets}"
                },
                "daysSupply": {
                    "value": 90,
                    "system": "http://unitsofmeasure.org",
                    "code": "d"
                },
                "whenHandedOver": "2009-01-29"
            },
            "request": {
                "method": "PUT",
                "url": "MedicationDispense/smart-MedicationDispense-59"
            }
        },
        {
            "resource": {
                "resourceType": "MedicationDispense",
                "id": "smart-MedicationDispense-58",
                "text": {
                    "div": "<div>\n      Dispensed 90 tablets = 90 day supply of Thyroxine 0.112 MG Oral Tablet [Levoxyl]\n    </div>",
                    "status": "generated"
                },
                "status": "completed",
                "patient": {
                    "reference": "Patient/smart-1642068"
                },
                "authorizingPrescription": [
                    {
                        "reference": "MedicationOrder/smart-MedicationOrder-179"
                    }
                ],
                "quantity": {
                    "value": 90,
                    "system": "http://unitsofmeasure.org",
                    "code": "{tablets}"
                },
                "daysSupply": {
                    "value": 90,
                    "system": "http://unitsofmeasure.org",
                    "code": "d"
                },
                "whenHandedOver": "2008-11-06"
            },
            "request": {
                "method": "PUT",
                "url": "MedicationDispense/smart-MedicationDispense-58"
            }
        },
        {
            "resource": {
                "resourceType": "MedicationDispense",
                "id": "smart-MedicationDispense-61",
                "text": {
                    "div": "<div>\n      Dispensed 90 tablets = 90 day supply of Thyroxine 0.112 MG Oral Tablet [Levoxyl]\n    </div>",
                    "status": "generated"
                },
                "status": "completed",
                "patient": {
                    "reference": "Patient/smart-1642068"
                },
                "authorizingPrescription": [
                    {
                        "reference": "MedicationOrder/smart-MedicationOrder-179"
                    }
                ],
                "quantity": {
                    "value": 90,
                    "system": "http://unitsofmeasure.org",
                    "code": "{tablets}"
                },
                "daysSupply": {
                    "value": 90,
                    "system": "http://unitsofmeasure.org",
                    "code": "d"
                },
                "whenHandedOver": "2009-07-16"
            },
            "request": {
                "method": "PUT",
                "url": "MedicationDispense/smart-MedicationDispense-61"
            }
        },
        {
            "resource": {
                "resourceType": "MedicationOrder",
                "id": "smart-MedicationOrder-180",
                "text": {
                    "div": "<div>\n      Hydrochlorothiazide 12.5 MG / irbesartan 150 MG Oral Tablet [Avalide 150/12.5] (rxnorm: 823934)\n    </div>",
                    "status": "generated"
                },
                "status": "active",
                "patient": {
                    "reference": "Patient/smart-1642068"
                },
                "dosageInstruction": [
                    {
                        "timing": {
                            "repeat": {
                                "boundsPeriod": {
                                    "start": "2008-08-29"
                                },
                                "frequency": 1,
                                "period": 1,
                                "periodUnits": "d"
                            }
                        },
                        "text": "1 daily"
                    }
                ],
                "dispenseRequest": {
                    "numberOfRepeatsAllowed": "1",
                    "quantity": {
                        "value": 90,
                        "system": "http://unitsofmeasure.org",
                        "code": "{tablet}"
                    },
                    "expectedSupplyDuration": {
                        "value": 90,
                        "system": "http://unitsofmeasure.org",
                        "code": "d"
                    }
                }
            },
            "request": {
                "method": "PUT",
                "url": "MedicationOrder/smart-MedicationOrder-180"
            }
        },
        {
            "resource": {
                "resourceType": "MedicationDispense",
                "id": "smart-MedicationDispense-80",
                "text": {
                    "div": "<div>\n      Dispensed 90 tablets = 90 day supply of Hydrochlorothiazide 12.5 MG / irbesartan 150 MG Oral Tablet [Avalide 150/12.5]\n    </div>",
                    "status": "generated"
                },
                "status": "completed",
                "patient": {
                    "reference": "Patient/smart-1642068"
                },
                "authorizingPrescription": [
                    {
                        "reference": "MedicationOrder/smart-MedicationOrder-180"
                    }
                ],
                "quantity": {
                    "value": 90,
                    "system": "http://unitsofmeasure.org",
                    "code": "{tablets}"
                },
                "daysSupply": {
                    "value": 90,
                    "system": "http://unitsofmeasure.org",
                    "code": "d"
                },
                "whenHandedOver": "2008-08-29"
            },
            "request": {
                "method": "PUT",
                "url": "MedicationDispense/smart-MedicationDispense-80"
            }
        },
        {
            "resource": {
                "resourceType": "MedicationOrder",
                "id": "smart-MedicationOrder-181",
                "text": {
                    "div": "<div>\n      pantoprazole 40 MG Enteric Coated Tablet (rxnorm: 314200)\n    </div>",
                    "status": "generated"
                },
                "status": "active",
                "patient": {
                    "reference": "Patient/smart-1642068"
                },
                "dosageInstruction": [
                    {
                        "timing": {
                            "repeat": {
                                "boundsPeriod": {
                                    "start": "2008-09-21"
                                },
                                "frequency": 1,
                                "period": 1,
                                "periodUnits": "d"
                            }
                        },
                        "text": "1 daily"
                    }
                ],
                "dispenseRequest": {
                    "numberOfRepeatsAllowed": "1",
                    "quantity": {
                        "value": 90,
                        "system": "http://unitsofmeasure.org",
                        "code": "{tablet}"
                    },
                    "expectedSupplyDuration": {
                        "value": 90,
                        "system": "http://unitsofmeasure.org",
                        "code": "d"
                    }
                }
            },
            "request": {
                "method": "PUT",
                "url": "MedicationOrder/smart-MedicationOrder-181"
            }
        },
        {
            "resource": {
                "resourceType": "MedicationDispense",
                "id": "smart-MedicationDispense-52",
                "text": {
                    "div": "<div>\n      Dispensed 90 tablets = 90 day supply of pantoprazole 40 MG Enteric Coated Tablet\n    </div>",
                    "status": "generated"
                },
                "status": "completed",
                "patient": {
                    "reference": "Patient/smart-1642068"
                },
                "authorizingPrescription": [
                    {
                        "reference": "MedicationOrder/smart-MedicationOrder-181"
                    }
                ],
                "quantity": {
                    "value": 90,
                    "system": "http://unitsofmeasure.org",
                    "code": "{tablets}"
                },
                "daysSupply": {
                    "value": 90,
                    "system": "http://unitsofmeasure.org",
                    "code": "d"
                },
                "whenHandedOver": "2008-09-21"
            },
            "request": {
                "method": "PUT",
                "url": "MedicationDispense/smart-MedicationDispense-52"
            }
        },
        {
            "resource": {
                "resourceType": "MedicationDispense",
                "id": "smart-MedicationDispense-53",
                "text": {
                    "div": "<div>\n      Dispensed 90 tablets = 90 day supply of pantoprazole 40 MG Enteric Coated Tablet\n    </div>",
                    "status": "generated"
                },
                "status": "completed",
                "patient": {
                    "reference": "Patient/smart-1642068"
                },
                "authorizingPrescription": [
                    {
                        "reference": "MedicationOrder/smart-MedicationOrder-181"
                    }
                ],
                "quantity": {
                    "value": 90,
                    "system": "http://unitsofmeasure.org",
                    "code": "{tablets}"
                },
                "daysSupply": {
                    "value": 90,
                    "system": "http://unitsofmeasure.org",
                    "code": "d"
                },
                "whenHandedOver": "2008-12-20"
            },
            "request": {
                "method": "PUT",
                "url": "MedicationDispense/smart-MedicationDispense-53"
            }
        },
        {
            "resource": {
                "resourceType": "MedicationOrder",
                "id": "smart-MedicationOrder-182",
                "text": {
                    "div": "<div>\n      Ranitidine 150 MG Oral Tablet (rxnorm: 198191)\n    </div>",
                    "status": "generated"
                },
                "status": "active",
                "patient": {
                    "reference": "Patient/smart-1642068"
                },
                "dosageInstruction": [
                    {
                        "timing": {
                            "repeat": {
                                "boundsPeriod": {
                                    "start": "2008-09-25"
                                },
                                "frequency": 2,
                                "period": 1,
                                "periodUnits": "d"
                            }
                        },
                        "text": "1 bid"
                    }
                ],
                "dispenseRequest": {
                    "numberOfRepeatsAllowed": "1",
                    "quantity": {
                        "value": 90,
                        "system": "http://unitsofmeasure.org",
                        "code": "{tablet}"
                    },
                    "expectedSupplyDuration": {
                        "value": 90,
                        "system": "http://unitsofmeasure.org",
                        "code": "d"
                    }
                }
            },
            "request": {
                "method": "PUT",
                "url": "MedicationOrder/smart-MedicationOrder-182"
            }
        },
        {
            "resource": {
                "resourceType": "MedicationDispense",
                "id": "smart-MedicationDispense-62",
                "text": {
                    "div": "<div>\n      Dispensed 90 tablets = 90 day supply of Ranitidine 150 MG Oral Tablet\n    </div>",
                    "status": "generated"
                },
                "status": "completed",
                "patient": {
                    "reference": "Patient/smart-1642068"
                },
                "authorizingPrescription": [
                    {
                        "reference": "MedicationOrder/smart-MedicationOrder-182"
                    }
                ],
                "quantity": {
                    "value": 90,
                    "system": "http://unitsofmeasure.org",
                    "code": "{tablets}"
                },
                "daysSupply": {
                    "value": 90,
                    "system": "http://unitsofmeasure.org",
                    "code": "d"
                },
                "whenHandedOver": "2008-09-25"
            },
            "request": {
                "method": "PUT",
                "url": "MedicationDispense/smart-MedicationDispense-62"
            }
        },
        {
            "resource": {
                "resourceType": "MedicationDispense",
                "id": "smart-MedicationDispense-64",
                "text": {
                    "div": "<div>\n      Dispensed 90 tablets = 90 day supply of Ranitidine 150 MG Oral Tablet\n    </div>",
                    "status": "generated"
                },
                "status": "completed",
                "patient": {
                    "reference": "Patient/smart-1642068"
                },
                "authorizingPrescription": [
                    {
                        "reference": "MedicationOrder/smart-MedicationOrder-182"
                    }
                ],
                "quantity": {
                    "value": 90,
                    "system": "http://unitsofmeasure.org",
                    "code": "{tablets}"
                },
                "daysSupply": {
                    "value": 90,
                    "system": "http://unitsofmeasure.org",
                    "code": "d"
                },
                "whenHandedOver": "2009-03-19"
            },
            "request": {
                "method": "PUT",
                "url": "MedicationDispense/smart-MedicationDispense-64"
            }
        },
        {
            "resource": {
                "resourceType": "MedicationDispense",
                "id": "smart-MedicationDispense-63",
                "text": {
                    "div": "<div>\n      Dispensed 90 tablets = 90 day supply of Ranitidine 150 MG Oral Tablet\n    </div>",
                    "status": "generated"
                },
                "status": "completed",
                "patient": {
                    "reference": "Patient/smart-1642068"
                },
                "authorizingPrescription": [
                    {
                        "reference": "MedicationOrder/smart-MedicationOrder-182"
                    }
                ],
                "quantity": {
                    "value": 90,
                    "system": "http://unitsofmeasure.org",
                    "code": "{tablets}"
                },
                "daysSupply": {
                    "value": 90,
                    "system": "http://unitsofmeasure.org",
                    "code": "d"
                },
                "whenHandedOver": "2008-12-20"
            },
            "request": {
                "method": "PUT",
                "url": "MedicationDispense/smart-MedicationDispense-63"
            }
        },
        {
            "resource": {
                "resourceType": "MedicationDispense",
                "id": "smart-MedicationDispense-65",
                "text": {
                    "div": "<div>\n      Dispensed 90 tablets = 90 day supply of Ranitidine 150 MG Oral Tablet\n    </div>",
                    "status": "generated"
                },
                "status": "completed",
                "patient": {
                    "reference": "Patient/smart-1642068"
                },
                "authorizingPrescription": [
                    {
                        "reference": "MedicationOrder/smart-MedicationOrder-182"
                    }
                ],
                "quantity": {
                    "value": 90,
                    "system": "http://unitsofmeasure.org",
                    "code": "{tablets}"
                },
                "daysSupply": {
                    "value": 90,
                    "system": "http://unitsofmeasure.org",
                    "code": "d"
                },
                "whenHandedOver": "2009-06-18"
            },
            "request": {
                "method": "PUT",
                "url": "MedicationDispense/smart-MedicationDispense-65"
            }
        },
        {
            "resource": {
                "resourceType": "MedicationDispense",
                "id": "smart-MedicationDispense-66",
                "text": {
                    "div": "<div>\n      Dispensed 90 tablets = 90 day supply of Ranitidine 150 MG Oral Tablet\n    </div>",
                    "status": "generated"
                },
                "status": "completed",
                "patient": {
                    "reference": "Patient/smart-1642068"
                },
                "authorizingPrescription": [
                    {
                        "reference": "MedicationOrder/smart-MedicationOrder-182"
                    }
                ],
                "quantity": {
                    "value": 90,
                    "system": "http://unitsofmeasure.org",
                    "code": "{tablets}"
                },
                "daysSupply": {
                    "value": 90,
                    "system": "http://unitsofmeasure.org",
                    "code": "d"
                },
                "whenHandedOver": "2009-09-17"
            },
            "request": {
                "method": "PUT",
                "url": "MedicationDispense/smart-MedicationDispense-66"
            }
        },
        {
            "resource": {
                "resourceType": "MedicationOrder",
                "id": "smart-MedicationOrder-183",
                "text": {
                    "div": "<div>\n      Alendronate 70 MG Oral Tablet (rxnorm: 617264)\n    </div>",
                    "status": "generated"
                },
                "status": "active",
                "patient": {
                    "reference": "Patient/smart-1642068"
                },
                "dosageInstruction": [
                    {
                        "timing": {
                            "repeat": {
                                "boundsPeriod": {
                                    "start": "2008-09-25"
                                },
                                "frequency": 1,
                                "period": 1,
                                "periodUnits": "wk"
                            }
                        },
                        "text": "1 weekly"
                    }
                ],
                "dispenseRequest": {
                    "numberOfRepeatsAllowed": "1",
                    "quantity": {
                        "value": 12,
                        "system": "http://unitsofmeasure.org",
                        "code": "{tablet}"
                    },
                    "expectedSupplyDuration": {
                        "value": 90,
                        "system": "http://unitsofmeasure.org",
                        "code": "d"
                    }
                }
            },
            "request": {
                "method": "PUT",
                "url": "MedicationOrder/smart-MedicationOrder-183"
            }
        },
        {
            "resource": {
                "resourceType": "MedicationDispense",
                "id": "smart-MedicationDispense-69",
                "text": {
                    "div": "<div>\n      Dispensed 12 tablets = 90 day supply of Alendronate 70 MG Oral Tablet\n    </div>",
                    "status": "generated"
                },
                "status": "completed",
                "patient": {
                    "reference": "Patient/smart-1642068"
                },
                "authorizingPrescription": [
                    {
                        "reference": "MedicationOrder/smart-MedicationOrder-183"
                    }
                ],
                "quantity": {
                    "value": 12,
                    "system": "http://unitsofmeasure.org",
                    "code": "{tablets}"
                },
                "daysSupply": {
                    "value": 90,
                    "system": "http://unitsofmeasure.org",
                    "code": "d"
                },
                "whenHandedOver": "2009-03-14"
            },
            "request": {
                "method": "PUT",
                "url": "MedicationDispense/smart-MedicationDispense-69"
            }
        },
        {
            "resource": {
                "resourceType": "MedicationDispense",
                "id": "smart-MedicationDispense-68",
                "text": {
                    "div": "<div>\n      Dispensed 12 tablets = 90 day supply of Alendronate 70 MG Oral Tablet\n    </div>",
                    "status": "generated"
                },
                "status": "completed",
                "patient": {
                    "reference": "Patient/smart-1642068"
                },
                "authorizingPrescription": [
                    {
                        "reference": "MedicationOrder/smart-MedicationOrder-183"
                    }
                ],
                "quantity": {
                    "value": 12,
                    "system": "http://unitsofmeasure.org",
                    "code": "{tablets}"
                },
                "daysSupply": {
                    "value": 90,
                    "system": "http://unitsofmeasure.org",
                    "code": "d"
                },
                "whenHandedOver": "2008-12-18"
            },
            "request": {
                "method": "PUT",
                "url": "MedicationDispense/smart-MedicationDispense-68"
            }
        },
        {
            "resource": {
                "resourceType": "MedicationDispense",
                "id": "smart-MedicationDispense-71",
                "text": {
                    "div": "<div>\n      Dispensed 12 tablets = 90 day supply of Alendronate 70 MG Oral Tablet\n    </div>",
                    "status": "generated"
                },
                "status": "completed",
                "patient": {
                    "reference": "Patient/smart-1642068"
                },
                "authorizingPrescription": [
                    {
                        "reference": "MedicationOrder/smart-MedicationOrder-183"
                    }
                ],
                "quantity": {
                    "value": 12,
                    "system": "http://unitsofmeasure.org",
                    "code": "{tablets}"
                },
                "daysSupply": {
                    "value": 90,
                    "system": "http://unitsofmeasure.org",
                    "code": "d"
                },
                "whenHandedOver": "2009-09-03"
            },
            "request": {
                "method": "PUT",
                "url": "MedicationDispense/smart-MedicationDispense-71"
            }
        },
        {
            "resource": {
                "resourceType": "MedicationDispense",
                "id": "smart-MedicationDispense-67",
                "text": {
                    "div": "<div>\n      Dispensed 12 tablets = 90 day supply of Alendronate 70 MG Oral Tablet\n    </div>",
                    "status": "generated"
                },
                "status": "completed",
                "patient": {
                    "reference": "Patient/smart-1642068"
                },
                "authorizingPrescription": [
                    {
                        "reference": "MedicationOrder/smart-MedicationOrder-183"
                    }
                ],
                "quantity": {
                    "value": 12,
                    "system": "http://unitsofmeasure.org",
                    "code": "{tablets}"
                },
                "daysSupply": {
                    "value": 90,
                    "system": "http://unitsofmeasure.org",
                    "code": "d"
                },
                "whenHandedOver": "2008-09-25"
            },
            "request": {
                "method": "PUT",
                "url": "MedicationDispense/smart-MedicationDispense-67"
            }
        },
        {
            "resource": {
                "resourceType": "MedicationDispense",
                "id": "smart-MedicationDispense-70",
                "text": {
                    "div": "<div>\n      Dispensed 12 tablets = 90 day supply of Alendronate 70 MG Oral Tablet\n    </div>",
                    "status": "generated"
                },
                "status": "completed",
                "patient": {
                    "reference": "Patient/smart-1642068"
                },
                "authorizingPrescription": [
                    {
                        "reference": "MedicationOrder/smart-MedicationOrder-183"
                    }
                ],
                "quantity": {
                    "value": 12,
                    "system": "http://unitsofmeasure.org",
                    "code": "{tablets}"
                },
                "daysSupply": {
                    "value": 90,
                    "system": "http://unitsofmeasure.org",
                    "code": "d"
                },
                "whenHandedOver": "2009-06-04"
            },
            "request": {
                "method": "PUT",
                "url": "MedicationDispense/smart-MedicationDispense-70"
            }
        },
        {
            "resource": {
                "resourceType": "MedicationOrder",
                "id": "smart-MedicationOrder-184",
                "text": {
                    "div": "<div>\n      Simvastatin 20 MG Oral Tablet (rxnorm: 312961)\n    </div>",
                    "status": "generated"
                },
                "status": "active",
                "patient": {
                    "reference": "Patient/smart-1642068"
                },
                "dosageInstruction": [
                    {
                        "timing": {
                            "repeat": {
                                "boundsPeriod": {
                                    "start": "2008-10-02"
                                },
                                "frequency": 1,
                                "period": 1,
                                "periodUnits": "d"
                            }
                        },
                        "text": "1 qhs"
                    }
                ],
                "dispenseRequest": {
                    "numberOfRepeatsAllowed": "1",
                    "quantity": {
                        "value": 90,
                        "system": "http://unitsofmeasure.org",
                        "code": "{tablet}"
                    },
                    "expectedSupplyDuration": {
                        "value": 90,
                        "system": "http://unitsofmeasure.org",
                        "code": "d"
                    }
                }
            },
            "request": {
                "method": "PUT",
                "url": "MedicationOrder/smart-MedicationOrder-184"
            }
        },
        {
            "resource": {
                "resourceType": "MedicationDispense",
                "id": "smart-MedicationDispense-88",
                "text": {
                    "div": "<div>\n      Dispensed 90 tablets = 90 day supply of Simvastatin 20 MG Oral Tablet\n    </div>",
                    "status": "generated"
                },
                "status": "completed",
                "patient": {
                    "reference": "Patient/smart-1642068"
                },
                "authorizingPrescription": [
                    {
                        "reference": "MedicationOrder/smart-MedicationOrder-184"
                    }
                ],
                "quantity": {
                    "value": 90,
                    "system": "http://unitsofmeasure.org",
                    "code": "{tablets}"
                },
                "daysSupply": {
                    "value": 90,
                    "system": "http://unitsofmeasure.org",
                    "code": "d"
                },
                "whenHandedOver": "2009-07-09"
            },
            "request": {
                "method": "PUT",
                "url": "MedicationDispense/smart-MedicationDispense-88"
            }
        },
        {
            "resource": {
                "resourceType": "MedicationDispense",
                "id": "smart-MedicationDispense-85",
                "text": {
                    "div": "<div>\n      Dispensed 90 tablets = 90 day supply of Simvastatin 20 MG Oral Tablet\n    </div>",
                    "status": "generated"
                },
                "status": "completed",
                "patient": {
                    "reference": "Patient/smart-1642068"
                },
                "authorizingPrescription": [
                    {
                        "reference": "MedicationOrder/smart-MedicationOrder-184"
                    }
                ],
                "quantity": {
                    "value": 90,
                    "system": "http://unitsofmeasure.org",
                    "code": "{tablets}"
                },
                "daysSupply": {
                    "value": 90,
                    "system": "http://unitsofmeasure.org",
                    "code": "d"
                },
                "whenHandedOver": "2008-10-02"
            },
            "request": {
                "method": "PUT",
                "url": "MedicationDispense/smart-MedicationDispense-85"
            }
        },
        {
            "resource": {
                "resourceType": "MedicationDispense",
                "id": "smart-MedicationDispense-86",
                "text": {
                    "div": "<div>\n      Dispensed 90 tablets = 90 day supply of Simvastatin 20 MG Oral Tablet\n    </div>",
                    "status": "generated"
                },
                "status": "completed",
                "patient": {
                    "reference": "Patient/smart-1642068"
                },
                "authorizingPrescription": [
                    {
                        "reference": "MedicationOrder/smart-MedicationOrder-184"
                    }
                ],
                "quantity": {
                    "value": 90,
                    "system": "http://unitsofmeasure.org",
                    "code": "{tablets}"
                },
                "daysSupply": {
                    "value": 90,
                    "system": "http://unitsofmeasure.org",
                    "code": "d"
                },
                "whenHandedOver": "2008-12-26"
            },
            "request": {
                "method": "PUT",
                "url": "MedicationDispense/smart-MedicationDispense-86"
            }
        },
        {
            "resource": {
                "resourceType": "MedicationDispense",
                "id": "smart-MedicationDispense-87",
                "text": {
                    "div": "<div>\n      Dispensed 90 tablets = 90 day supply of Simvastatin 20 MG Oral Tablet\n    </div>",
                    "status": "generated"
                },
                "status": "completed",
                "patient": {
                    "reference": "Patient/smart-1642068"
                },
                "authorizingPrescription": [
                    {
                        "reference": "MedicationOrder/smart-MedicationOrder-184"
                    }
                ],
                "quantity": {
                    "value": 90,
                    "system": "http://unitsofmeasure.org",
                    "code": "{tablets}"
                },
                "daysSupply": {
                    "value": 90,
                    "system": "http://unitsofmeasure.org",
                    "code": "d"
                },
                "whenHandedOver": "2009-04-04"
            },
            "request": {
                "method": "PUT",
                "url": "MedicationDispense/smart-MedicationDispense-87"
            }
        },
        {
            "resource": {
                "resourceType": "MedicationOrder",
                "id": "smart-MedicationOrder-185",
                "text": {
                    "div": "<div>\n      Diclofenac 75 MG / Misoprostol 0.2 MG Enteric Coated Tablet [Arthrotec 75/200] (rxnorm: 855918)\n    </div>",
                    "status": "generated"
                },
                "status": "active",
                "patient": {
                    "reference": "Patient/smart-1642068"
                },
                "dosageInstruction": [
                    {
                        "timing": {
                            "repeat": {
                                "boundsPeriod": {
                                    "start": "2008-10-24"
                                },
                                "frequency": 2,
                                "period": 1,
                                "periodUnits": "d"
                            }
                        },
                        "asNeededBoolean": true,
                        "text": "1 bid prn pain"
                    }
                ],
                "dispenseRequest": {
                    "numberOfRepeatsAllowed": "1",
                    "quantity": {
                        "value": 270,
                        "system": "http://unitsofmeasure.org",
                        "code": "{tablet}"
                    },
                    "expectedSupplyDuration": {
                        "value": 90,
                        "system": "http://unitsofmeasure.org",
                        "code": "d"
                    }
                }
            },
            "request": {
                "method": "PUT",
                "url": "MedicationOrder/smart-MedicationOrder-185"
            }
        },
        {
            "resource": {
                "resourceType": "MedicationDispense",
                "id": "smart-MedicationDispense-84",
                "text": {
                    "div": "<div>\n      Dispensed 270 tablets = 90 day supply of Diclofenac 75 MG / Misoprostol 0.2 MG Enteric Coated Tablet [Arthrotec 75/200]\n    </div>",
                    "status": "generated"
                },
                "status": "completed",
                "patient": {
                    "reference": "Patient/smart-1642068"
                },
                "authorizingPrescription": [
                    {
                        "reference": "MedicationOrder/smart-MedicationOrder-185"
                    }
                ],
                "quantity": {
                    "value": 270,
                    "system": "http://unitsofmeasure.org",
                    "code": "{tablets}"
                },
                "daysSupply": {
                    "value": 90,
                    "system": "http://unitsofmeasure.org",
                    "code": "d"
                },
                "whenHandedOver": "2009-09-03"
            },
            "request": {
                "method": "PUT",
                "url": "MedicationDispense/smart-MedicationDispense-84"
            }
        },
        {
            "resource": {
                "resourceType": "MedicationDispense",
                "id": "smart-MedicationDispense-81",
                "text": {
                    "div": "<div>\n      Dispensed 270 tablets = 90 day supply of Diclofenac 75 MG / Misoprostol 0.2 MG Enteric Coated Tablet [Arthrotec 75/200]\n    </div>",
                    "status": "generated"
                },
                "status": "completed",
                "patient": {
                    "reference": "Patient/smart-1642068"
                },
                "authorizingPrescription": [
                    {
                        "reference": "MedicationOrder/smart-MedicationOrder-185"
                    }
                ],
                "quantity": {
                    "value": 270,
                    "system": "http://unitsofmeasure.org",
                    "code": "{tablets}"
                },
                "daysSupply": {
                    "value": 90,
                    "system": "http://unitsofmeasure.org",
                    "code": "d"
                },
                "whenHandedOver": "2008-10-24"
            },
            "request": {
                "method": "PUT",
                "url": "MedicationDispense/smart-MedicationDispense-81"
            }
        },
        {
            "resource": {
                "resourceType": "MedicationDispense",
                "id": "smart-MedicationDispense-83",
                "text": {
                    "div": "<div>\n      Dispensed 270 tablets = 90 day supply of Diclofenac 75 MG / Misoprostol 0.2 MG Enteric Coated Tablet [Arthrotec 75/200]\n    </div>",
                    "status": "generated"
                },
                "status": "completed",
                "patient": {
                    "reference": "Patient/smart-1642068"
                },
                "authorizingPrescription": [
                    {
                        "reference": "MedicationOrder/smart-MedicationOrder-185"
                    }
                ],
                "quantity": {
                    "value": 270,
                    "system": "http://unitsofmeasure.org",
                    "code": "{tablets}"
                },
                "daysSupply": {
                    "value": 90,
                    "system": "http://unitsofmeasure.org",
                    "code": "d"
                },
                "whenHandedOver": "2009-05-02"
            },
            "request": {
                "method": "PUT",
                "url": "MedicationDispense/smart-MedicationDispense-83"
            }
        },
        {
            "resource": {
                "resourceType": "MedicationDispense",
                "id": "smart-MedicationDispense-82",
                "text": {
                    "div": "<div>\n      Dispensed 270 tablets = 90 day supply of Diclofenac 75 MG / Misoprostol 0.2 MG Enteric Coated Tablet [Arthrotec 75/200]\n    </div>",
                    "status": "generated"
                },
                "status": "completed",
                "patient": {
                    "reference": "Patient/smart-1642068"
                },
                "authorizingPrescription": [
                    {
                        "reference": "MedicationOrder/smart-MedicationOrder-185"
                    }
                ],
                "quantity": {
                    "value": 270,
                    "system": "http://unitsofmeasure.org",
                    "code": "{tablets}"
                },
                "daysSupply": {
                    "value": 90,
                    "system": "http://unitsofmeasure.org",
                    "code": "d"
                },
                "whenHandedOver": "2009-01-18"
            },
            "request": {
                "method": "PUT",
                "url": "MedicationDispense/smart-MedicationDispense-82"
            }
        },
        {
            "resource": {
                "resourceType": "MedicationOrder",
                "id": "smart-MedicationOrder-186",
                "text": {
                    "div": "<div>\n      Hydrochlorothiazide 12.5 MG / Lisinopril 20 MG Oral Tablet (rxnorm: 197886)\n    </div>",
                    "status": "generated"
                },
                "status": "active",
                "patient": {
                    "reference": "Patient/smart-1642068"
                },
                "dosageInstruction": [
                    {
                        "timing": {
                            "repeat": {
                                "boundsPeriod": {
                                    "start": "2008-12-01"
                                },
                                "frequency": 1,
                                "period": 1,
                                "periodUnits": "d"
                            }
                        },
                        "text": "1 daily"
                    }
                ],
                "dispenseRequest": {
                    "numberOfRepeatsAllowed": "1",
                    "quantity": {
                        "value": 90,
                        "system": "http://unitsofmeasure.org",
                        "code": "{tablet}"
                    },
                    "expectedSupplyDuration": {
                        "value": 90,
                        "system": "http://unitsofmeasure.org",
                        "code": "d"
                    }
                }
            },
            "request": {
                "method": "PUT",
                "url": "MedicationOrder/smart-MedicationOrder-186"
            }
        },
        {
            "resource": {
                "resourceType": "MedicationDispense",
                "id": "smart-MedicationDispense-75",
                "text": {
                    "div": "<div>\n      Dispensed 90 tablets = 90 day supply of Hydrochlorothiazide 12.5 MG / Lisinopril 20 MG Oral Tablet\n    </div>",
                    "status": "generated"
                },
                "status": "completed",
                "patient": {
                    "reference": "Patient/smart-1642068"
                },
                "authorizingPrescription": [
                    {
                        "reference": "MedicationOrder/smart-MedicationOrder-186"
                    }
                ],
                "quantity": {
                    "value": 90,
                    "system": "http://unitsofmeasure.org",
                    "code": "{tablets}"
                },
                "daysSupply": {
                    "value": 90,
                    "system": "http://unitsofmeasure.org",
                    "code": "d"
                },
                "whenHandedOver": "2009-02-26"
            },
            "request": {
                "method": "PUT",
                "url": "MedicationDispense/smart-MedicationDispense-75"
            }
        },
        {
            "resource": {
                "resourceType": "MedicationDispense",
                "id": "smart-MedicationDispense-76",
                "text": {
                    "div": "<div>\n      Dispensed 90 tablets = 90 day supply of Hydrochlorothiazide 12.5 MG / Lisinopril 20 MG Oral Tablet\n    </div>",
                    "status": "generated"
                },
                "status": "completed",
                "patient": {
                    "reference": "Patient/smart-1642068"
                },
                "authorizingPrescription": [
                    {
                        "reference": "MedicationOrder/smart-MedicationOrder-186"
                    }
                ],
                "quantity": {
                    "value": 90,
                    "system": "http://unitsofmeasure.org",
                    "code": "{tablets}"
                },
                "daysSupply": {
                    "value": 90,
                    "system": "http://unitsofmeasure.org",
                    "code": "d"
                },
                "whenHandedOver": "2009-05-22"
            },
            "request": {
                "method": "PUT",
                "url": "MedicationDispense/smart-MedicationDispense-76"
            }
        },
        {
            "resource": {
                "resourceType": "MedicationDispense",
                "id": "smart-MedicationDispense-74",
                "text": {
                    "div": "<div>\n      Dispensed 90 tablets = 90 day supply of Hydrochlorothiazide 12.5 MG / Lisinopril 20 MG Oral Tablet\n    </div>",
                    "status": "generated"
                },
                "status": "completed",
                "patient": {
                    "reference": "Patient/smart-1642068"
                },
                "authorizingPrescription": [
                    {
                        "reference": "MedicationOrder/smart-MedicationOrder-186"
                    }
                ],
                "quantity": {
                    "value": 90,
                    "system": "http://unitsofmeasure.org",
                    "code": "{tablets}"
                },
                "daysSupply": {
                    "value": 90,
                    "system": "http://unitsofmeasure.org",
                    "code": "d"
                },
                "whenHandedOver": "2008-12-01"
            },
            "request": {
                "method": "PUT",
                "url": "MedicationDispense/smart-MedicationDispense-74"
            }
        },
        {
            "resource": {
                "resourceType": "MedicationOrder",
                "id": "smart-MedicationOrder-187",
                "text": {
                    "div": "<div>\n      120 ACTUAT mometasone furoate 0.05 MG/ACTUAT Nasal Inhaler [Nasonex] (rxnorm: 746201)\n    </div>",
                    "status": "generated"
                },
                "status": "active",
                "patient": {
                    "reference": "Patient/smart-1642068"
                },
                "dosageInstruction": [
                    {
                        "timing": {
                            "repeat": {
                                "boundsPeriod": {
                                    "start": "2008-12-20"
                                },
                                "frequency": 2,
                                "period": 1,
                                "periodUnits": "d"
                            }
                        },
                        "text": "1 puff bid"
                    }
                ],
                "dispenseRequest": {
                    "numberOfRepeatsAllowed": "1",
                    "quantity": {
                        "value": 1,
                        "system": "http://unitsofmeasure.org",
                        "code": "{puff}"
                    },
                    "expectedSupplyDuration": {
                        "value": 60,
                        "system": "http://unitsofmeasure.org",
                        "code": "d"
                    }
                }
            },
            "request": {
                "method": "PUT",
                "url": "MedicationOrder/smart-MedicationOrder-187"
            }
        },
        {
            "resource": {
                "resourceType": "MedicationDispense",
                "id": "smart-MedicationDispense-55",
                "text": {
                    "div": "<div>\n      Dispensed 17 tablets = 30 day supply of 120 ACTUAT mometasone furoate 0.05 MG/ACTUAT Nasal Inhaler [Nasonex]\n    </div>",
                    "status": "generated"
                },
                "status": "completed",
                "patient": {
                    "reference": "Patient/smart-1642068"
                },
                "authorizingPrescription": [
                    {
                        "reference": "MedicationOrder/smart-MedicationOrder-187"
                    }
                ],
                "quantity": {
                    "value": 17,
                    "system": "http://unitsofmeasure.org",
                    "code": "{tablets}"
                },
                "daysSupply": {
                    "value": 30,
                    "system": "http://unitsofmeasure.org",
                    "code": "d"
                },
                "whenHandedOver": "2009-07-17"
            },
            "request": {
                "method": "PUT",
                "url": "MedicationDispense/smart-MedicationDispense-55"
            }
        },
        {
            "resource": {
                "resourceType": "MedicationDispense",
                "id": "smart-MedicationDispense-54",
                "text": {
                    "div": "<div>\n      Dispensed 17 tablets = 30 day supply of 120 ACTUAT mometasone furoate 0.05 MG/ACTUAT Nasal Inhaler [Nasonex]\n    </div>",
                    "status": "generated"
                },
                "status": "completed",
                "patient": {
                    "reference": "Patient/smart-1642068"
                },
                "authorizingPrescription": [
                    {
                        "reference": "MedicationOrder/smart-MedicationOrder-187"
                    }
                ],
                "quantity": {
                    "value": 17,
                    "system": "http://unitsofmeasure.org",
                    "code": "{tablets}"
                },
                "daysSupply": {
                    "value": 30,
                    "system": "http://unitsofmeasure.org",
                    "code": "d"
                },
                "whenHandedOver": "2008-12-20"
            },
            "request": {
                "method": "PUT",
                "url": "MedicationDispense/smart-MedicationDispense-54"
            }
        },
        {
            "resource": {
                "resourceType": "MedicationDispense",
                "id": "smart-MedicationDispense-56",
                "text": {
                    "div": "<div>\n      Dispensed 17 tablets = 30 day supply of 120 ACTUAT mometasone furoate 0.05 MG/ACTUAT Nasal Inhaler [Nasonex]\n    </div>",
                    "status": "generated"
                },
                "status": "completed",
                "patient": {
                    "reference": "Patient/smart-1642068"
                },
                "authorizingPrescription": [
                    {
                        "reference": "MedicationOrder/smart-MedicationOrder-187"
                    }
                ],
                "quantity": {
                    "value": 17,
                    "system": "http://unitsofmeasure.org",
                    "code": "{tablets}"
                },
                "daysSupply": {
                    "value": 30,
                    "system": "http://unitsofmeasure.org",
                    "code": "d"
                },
                "whenHandedOver": "2009-09-03"
            },
            "request": {
                "method": "PUT",
                "url": "MedicationDispense/smart-MedicationDispense-56"
            }
        },
        {
            "resource": {
                "resourceType": "MedicationOrder",
                "id": "smart-MedicationOrder-188",
                "text": {
                    "div": "<div>\n      pantoprazole 40 MG Enteric Coated Tablet [Protonix] (rxnorm: 284400)\n    </div>",
                    "status": "generated"
                },
                "status": "active",
                "patient": {
                    "reference": "Patient/smart-1642068"
                },
                "dosageInstruction": [
                    {
                        "timing": {
                            "repeat": {
                                "boundsPeriod": {
                                    "start": "2009-03-19"
                                },
                                "frequency": 1,
                                "period": 1,
                                "periodUnits": "d"
                            }
                        },
                        "text": "1 daily"
                    }
                ],
                "dispenseRequest": {
                    "numberOfRepeatsAllowed": "1",
                    "quantity": {
                        "value": 90,
                        "system": "http://unitsofmeasure.org",
                        "code": "{tablet}"
                    },
                    "expectedSupplyDuration": {
                        "value": 90,
                        "system": "http://unitsofmeasure.org",
                        "code": "d"
                    }
                }
            },
            "request": {
                "method": "PUT",
                "url": "MedicationOrder/smart-MedicationOrder-188"
            }
        },
        {
            "resource": {
                "resourceType": "MedicationDispense",
                "id": "smart-MedicationDispense-79",
                "text": {
                    "div": "<div>\n      Dispensed 90 tablets = 90 day supply of pantoprazole 40 MG Enteric Coated Tablet [Protonix]\n    </div>",
                    "status": "generated"
                },
                "status": "completed",
                "patient": {
                    "reference": "Patient/smart-1642068"
                },
                "authorizingPrescription": [
                    {
                        "reference": "MedicationOrder/smart-MedicationOrder-188"
                    }
                ],
                "quantity": {
                    "value": 90,
                    "system": "http://unitsofmeasure.org",
                    "code": "{tablets}"
                },
                "daysSupply": {
                    "value": 90,
                    "system": "http://unitsofmeasure.org",
                    "code": "d"
                },
                "whenHandedOver": "2009-09-17"
            },
            "request": {
                "method": "PUT",
                "url": "MedicationDispense/smart-MedicationDispense-79"
            }
        },
        {
            "resource": {
                "resourceType": "MedicationDispense",
                "id": "smart-MedicationDispense-78",
                "text": {
                    "div": "<div>\n      Dispensed 90 tablets = 90 day supply of pantoprazole 40 MG Enteric Coated Tablet [Protonix]\n    </div>",
                    "status": "generated"
                },
                "status": "completed",
                "patient": {
                    "reference": "Patient/smart-1642068"
                },
                "authorizingPrescription": [
                    {
                        "reference": "MedicationOrder/smart-MedicationOrder-188"
                    }
                ],
                "quantity": {
                    "value": 90,
                    "system": "http://unitsofmeasure.org",
                    "code": "{tablets}"
                },
                "daysSupply": {
                    "value": 90,
                    "system": "http://unitsofmeasure.org",
                    "code": "d"
                },
                "whenHandedOver": "2009-06-18"
            },
            "request": {
                "method": "PUT",
                "url": "MedicationDispense/smart-MedicationDispense-78"
            }
        },
        {
            "resource": {
                "resourceType": "MedicationDispense",
                "id": "smart-MedicationDispense-77",
                "text": {
                    "div": "<div>\n      Dispensed 90 tablets = 90 day supply of pantoprazole 40 MG Enteric Coated Tablet [Protonix]\n    </div>",
                    "status": "generated"
                },
                "status": "completed",
                "patient": {
                    "reference": "Patient/smart-1642068"
                },
                "authorizingPrescription": [
                    {
                        "reference": "MedicationOrder/smart-MedicationOrder-188"
                    }
                ],
                "quantity": {
                    "value": 90,
                    "system": "http://unitsofmeasure.org",
                    "code": "{tablets}"
                },
                "daysSupply": {
                    "value": 90,
                    "system": "http://unitsofmeasure.org",
                    "code": "d"
                },
                "whenHandedOver": "2009-03-19"
            },
            "request": {
                "method": "PUT",
                "url": "MedicationDispense/smart-MedicationDispense-77"
            }
        },
        {
            "resource": {
                "resourceType": "MedicationOrder",
                "id": "smart-MedicationOrder-189",
                "text": {
                    "div": "<div>\n      Lisinopril 20 MG Oral Tablet (rxnorm: 314077)\n    </div>",
                    "status": "generated"
                },
                "status": "active",
                "patient": {
                    "reference": "Patient/smart-1642068"
                },
                "dosageInstruction": [
                    {
                        "timing": {
                            "repeat": {
                                "boundsPeriod": {
                                    "start": "2009-06-22"
                                },
                                "frequency": 1,
                                "period": 1,
                                "periodUnits": "d"
                            }
                        },
                        "text": "1 daily"
                    }
                ],
                "dispenseRequest": {
                    "numberOfRepeatsAllowed": "1",
                    "quantity": {
                        "value": 60,
                        "system": "http://unitsofmeasure.org",
                        "code": "{tablet}"
                    },
                    "expectedSupplyDuration": {
                        "value": 60,
                        "system": "http://unitsofmeasure.org",
                        "code": "d"
                    }
                }
            },
            "request": {
                "method": "PUT",
                "url": "MedicationOrder/smart-MedicationOrder-189"
            }
        },
        {
            "resource": {
                "resourceType": "MedicationDispense",
                "id": "smart-MedicationDispense-73",
                "text": {
                    "div": "<div>\n      Dispensed 90 tablets = 90 day supply of Lisinopril 20 MG Oral Tablet\n    </div>",
                    "status": "generated"
                },
                "status": "completed",
                "patient": {
                    "reference": "Patient/smart-1642068"
                },
                "authorizingPrescription": [
                    {
                        "reference": "MedicationOrder/smart-MedicationOrder-189"
                    }
                ],
                "quantity": {
                    "value": 90,
                    "system": "http://unitsofmeasure.org",
                    "code": "{tablets}"
                },
                "daysSupply": {
                    "value": 90,
                    "system": "http://unitsofmeasure.org",
                    "code": "d"
                },
                "whenHandedOver": "2009-08-24"
            },
            "request": {
                "method": "PUT",
                "url": "MedicationDispense/smart-MedicationDispense-73"
            }
        },
        {
            "resource": {
                "resourceType": "MedicationDispense",
                "id": "smart-MedicationDispense-72",
                "text": {
                    "div": "<div>\n      Dispensed 60 tablets = 60 day supply of Lisinopril 20 MG Oral Tablet\n    </div>",
                    "status": "generated"
                },
                "status": "completed",
                "patient": {
                    "reference": "Patient/smart-1642068"
                },
                "authorizingPrescription": [
                    {
                        "reference": "MedicationOrder/smart-MedicationOrder-189"
                    }
                ],
                "quantity": {
                    "value": 60,
                    "system": "http://unitsofmeasure.org",
                    "code": "{tablets}"
                },
                "daysSupply": {
                    "value": 60,
                    "system": "http://unitsofmeasure.org",
                    "code": "d"
                },
                "whenHandedOver": "2009-06-22"
            },
            "request": {
                "method": "PUT",
                "url": "MedicationDispense/smart-MedicationDispense-72"
            }
        },
        {
            "resource": {
                "resourceType": "Condition",
                "id": "smart-Condition-33",
                "text": {
                    "div": "<div>Benign neoplasm of stomach</div>",
                    "status": "generated"
                },
                "patient": {
                    "reference": "Patient/smart-1642068"
                },
                "code": {
                    "coding": [
                        {
                            "system": "http://snomed.info/sct",
                            "code": "78809005",
                            "display": "Benign neoplasm of stomach"
                        }
                    ],
                    "text": "Benign neoplasm of stomach"
                },
                "clinicalStatus": "active",
                "verificationStatus": "confirmed",
                "onsetDateTime": "2004-12-19"
            },
            "request": {
                "method": "PUT",
                "url": "Condition/smart-Condition-33"
            }
        },
        {
            "resource": {
                "resourceType": "Condition",
                "id": "smart-Condition-34",
                "text": {
                    "div": "<div>Essential hypertension</div>",
                    "status": "generated"
                },
                "patient": {
                    "reference": "Patient/smart-1642068"
                },
                "code": {
                    "coding": [
                        {
                            "system": "http://snomed.info/sct",
                            "code": "38341003",
                            "display": "Essential hypertension"
                        }
                    ],
                    "text": "Essential hypertension"
                },
                "clinicalStatus": "active",
                "verificationStatus": "confirmed",
                "onsetDateTime": "2004-12-19"
            },
            "request": {
                "method": "PUT",
                "url": "Condition/smart-Condition-34"
            }
        },
        {
            "resource": {
                "resourceType": "Condition",
                "id": "smart-Condition-35",
                "text": {
                    "div": "<div>Gastritis</div>",
                    "status": "generated"
                },
                "patient": {
                    "reference": "Patient/smart-1642068"
                },
                "code": {
                    "coding": [
                        {
                            "system": "http://snomed.info/sct",
                            "code": "235651006",
                            "display": "Gastritis"
                        }
                    ],
                    "text": "Gastritis"
                },
                "clinicalStatus": "active",
                "verificationStatus": "confirmed",
                "onsetDateTime": "2004-12-19"
            },
            "request": {
                "method": "PUT",
                "url": "Condition/smart-Condition-35"
            }
        },
        {
            "resource": {
                "resourceType": "Condition",
                "id": "smart-Condition-36",
                "text": {
                    "div": "<div>Hypothyroidism</div>",
                    "status": "generated"
                },
                "patient": {
                    "reference": "Patient/smart-1642068"
                },
                "code": {
                    "coding": [
                        {
                            "system": "http://snomed.info/sct",
                            "code": "40930008",
                            "display": "Hypothyroidism"
                        }
                    ],
                    "text": "Hypothyroidism"
                },
                "clinicalStatus": "active",
                "verificationStatus": "confirmed",
                "onsetDateTime": "2004-12-19"
            },
            "request": {
                "method": "PUT",
                "url": "Condition/smart-Condition-36"
            }
        },
        {
            "resource": {
                "resourceType": "Condition",
                "id": "smart-Condition-37",
                "text": {
                    "div": "<div>Other specified disorders of stomach and duodenum</div>",
                    "status": "generated"
                },
                "patient": {
                    "reference": "Patient/smart-1642068"
                },
                "code": {
                    "coding": [
                        {
                            "system": "http://snomed.info/sct",
                            "code": "236104004",
                            "display": "Other specified disorders of stomach and duodenum"
                        }
                    ],
                    "text": "Other specified disorders of stomach and duodenum"
                },
                "clinicalStatus": "active",
                "verificationStatus": "confirmed",
                "onsetDateTime": "2004-12-19"
            },
            "request": {
                "method": "PUT",
                "url": "Condition/smart-Condition-37"
            }
        },
        {
            "resource": {
                "resourceType": "Condition",
                "id": "smart-Condition-38",
                "text": {
                    "div": "<div>Pernicious anemia</div>",
                    "status": "generated"
                },
                "patient": {
                    "reference": "Patient/smart-1642068"
                },
                "code": {
                    "coding": [
                        {
                            "system": "http://snomed.info/sct",
                            "code": "84027009",
                            "display": "Pernicious anemia"
                        }
                    ],
                    "text": "Pernicious anemia"
                },
                "clinicalStatus": "active",
                "verificationStatus": "confirmed",
                "onsetDateTime": "2004-12-19"
            },
            "request": {
                "method": "PUT",
                "url": "Condition/smart-Condition-38"
            }
        },
        {
            "resource": {
                "resourceType": "Condition",
                "id": "smart-Condition-39",
                "text": {
                    "div": "<div>Abnormal mammogram, unspecified</div>",
                    "status": "generated"
                },
                "patient": {
                    "reference": "Patient/smart-1642068"
                },
                "code": {
                    "coding": [
                        {
                            "system": "http://snomed.info/sct",
                            "code": "168750009",
                            "display": "Abnormal mammogram, unspecified"
                        }
                    ],
                    "text": "Abnormal mammogram, unspecified"
                },
                "clinicalStatus": "active",
                "verificationStatus": "confirmed",
                "onsetDateTime": "2005-02-20"
            },
            "request": {
                "method": "PUT",
                "url": "Condition/smart-Condition-39"
            }
        },
        {
            "resource": {
                "resourceType": "Condition",
                "id": "smart-Condition-40",
                "text": {
                    "div": "<div>Osteoarthritis</div>",
                    "status": "generated"
                },
                "patient": {
                    "reference": "Patient/smart-1642068"
                },
                "code": {
                    "coding": [
                        {
                            "system": "http://snomed.info/sct",
                            "code": "396275006",
                            "display": "Osteoarthritis"
                        }
                    ],
                    "text": "Osteoarthritis"
                },
                "clinicalStatus": "active",
                "verificationStatus": "confirmed",
                "onsetDateTime": "2005-02-20"
            },
            "request": {
                "method": "PUT",
                "url": "Condition/smart-Condition-40"
            }
        },
        {
            "resource": {
                "resourceType": "Condition",
                "id": "smart-Condition-41",
                "text": {
                    "div": "<div>Pain in limb</div>",
                    "status": "generated"
                },
                "patient": {
                    "reference": "Patient/smart-1642068"
                },
                "code": {
                    "coding": [
                        {
                            "system": "http://snomed.info/sct",
                            "code": "10601006",
                            "display": "Pain in limb"
                        }
                    ],
                    "text": "Pain in limb"
                },
                "clinicalStatus": "active",
                "verificationStatus": "confirmed",
                "onsetDateTime": "2005-12-20"
            },
            "request": {
                "method": "PUT",
                "url": "Condition/smart-Condition-41"
            }
        },
        {
            "resource": {
                "resourceType": "Condition",
                "id": "smart-Condition-42",
                "text": {
                    "div": "<div>Exostosis of unspecified site</div>",
                    "status": "generated"
                },
                "patient": {
                    "reference": "Patient/smart-1642068"
                },
                "code": {
                    "coding": [
                        {
                            "system": "http://snomed.info/sct",
                            "code": "443092002",
                            "display": "Exostosis of unspecified site"
                        }
                    ],
                    "text": "Exostosis of unspecified site"
                },
                "clinicalStatus": "active",
                "verificationStatus": "confirmed",
                "onsetDateTime": "2006-01-07"
            },
            "request": {
                "method": "PUT",
                "url": "Condition/smart-Condition-42"
            }
        },
        {
            "resource": {
                "resourceType": "Condition",
                "id": "smart-Condition-43",
                "text": {
                    "div": "<div>H/O: penicillin allergy</div>",
                    "status": "generated"
                },
                "patient": {
                    "reference": "Patient/smart-1642068"
                },
                "code": {
                    "coding": [
                        {
                            "system": "http://snomed.info/sct",
                            "code": "161591004",
                            "display": "H/O: penicillin allergy"
                        }
                    ],
                    "text": "H/O: penicillin allergy"
                },
                "clinicalStatus": "active",
                "verificationStatus": "confirmed",
                "onsetDateTime": "2006-01-07"
            },
            "request": {
                "method": "PUT",
                "url": "Condition/smart-Condition-43"
            }
        },
        {
            "resource": {
                "resourceType": "Procedure",
                "id": "smart-Procedure-5",
                "text": {
                    "div": "<div>Radical mastectomy including pectoral muscles and axillary lymph nodes</div>",
                    "status": "generated"
                },
                "subject": {
                    "reference": "Patient/smart-1642068"
                },
                "code": {
                    "coding": [
                        {
                            "system": "http://snomed.info/sct",
                            "code": "359728003",
                            "display": "Radical mastectomy including pectoral muscles and axillary lymph nodes"
                        }
                    ],
                    "text": "Radical mastectomy including pectoral muscles and axillary lymph nodes"
                }
            },
            "request": {
                "method": "PUT",
                "url": "Procedure/smart-Procedure-5"
            }
        },
        {
            "resource": {
                "resourceType": "Procedure",
                "id": "smart-Procedure-6",
                "text": {
                    "div": "<div>Normal birth</div>",
                    "status": "generated"
                },
                "subject": {
                    "reference": "Patient/smart-1642068"
                },
                "code": {
                    "coding": [
                        {
                            "system": "http://snomed.info/sct",
                            "code": "169961004",
                            "display": "Normal birth"
                        }
                    ],
                    "text": "Normal birth"
                }
            },
            "request": {
                "method": "PUT",
                "url": "Procedure/smart-Procedure-6"
            }
        },
        {
            "resource": {
                "resourceType": "Observation",
                "id": "smart-Observation-27-smokingstatus",
                "text": {
                    "div": "<div>Tobacco smoking status: Never smoker</div>",
                    "status": "generated"
                },
                "category": {
                    "coding": [
                        {
                            "system": "http://hl7.org/fhir/observation-category",
                            "code": "social-history",
                            "display": "Social History"
                        }
                    ],
                    "text": "Social History"
                },
                "code": {
                    "coding": [
                        {
                            "system": "http://loinc.org",
                            "code": "72166-2",
                            "display": "Tobacco smoking status"
                        }
                    ],
                    "text": "Tobacco smoking status"
                },
                "valueCodeableConcept": {
                    "coding": [
                        {
                            "system": "http://snomed.info/sct",
                            "code": "266919005",
                            "display": "Never smoker"
                        }
                    ],
                    "text": "Never smoker"
                },
                "status": "final",
                "subject": {
                    "reference": "Patient/smart-1642068"
                }
            },
            "request": {
                "method": "PUT",
                "url": "Observation/smart-Observation-27-smokingstatus"
            }
        },
        {
            "resource": {
                "resourceType": "List",
                "id": "smart-List-38",
                "text": {
                    "div": "<div>No known allergies</div>",
                    "status": "generated"
                },
                "code": {
                    "coding": [
                        {
                            "system": "http://loinc.org/",
                            "code": "52473-6",
                            "display": "Allergy"
                        }
                    ],
                    "text": "Allergy"
                },
                "subject": {
                    "reference": "Patient/smart-1642068"
                },
                "date": "2000",
                "mode": "snapshot",
                "emptyReason": {
                    "coding": [
                        {
                            "system": "http://hl7.org/fhir/list-empty-reason",
                            "code": "nilknown",
                            "display": "Nil Known"
                        }
                    ],
                    "text": "Nil Known"
                }
            },
            "request": {
                "method": "PUT",
                "url": "List/smart-List-38"
            }
        }
    ]
}