{
    "resourceType": "Bundle",
    "type": "transaction",
    "entry": [
        {
            "resource": {
                "resourceType": "Patient",
                "id": "smart-767980",
                "text": {
                    "div": "<div><p>Thomas Moore</p></div>",
                    "status": "generated"
                },
                "identifier": [
                    {
                        "use": "usual",
                        "system": "http://hospital.smarthealthit.org",
                        "value": "767980"
                    }
                ],
                "name": [
                    {
                        "use": "official",
                        "family": [
                            "Moore"
                        ],
                        "given": [
                            "Thomas",
                            "Q."
                        ]
                    }
                ],
                "telecom": [
                    {
                        "system": "phone",
                        "value": "800-583-2533",
                        "use": "mobile"
                    },
                    {
                        "system": "email",
                        "value": "thomas.moore@example.com"
                    }
                ],
                "gender": "male",
                "birthDate": "1953-08-29",
                "address": [
                    {
                        "use": "home",
                        "line": [
                            "33 Park AveApt 2"
                        ],
                        "city": "Broken Arrow",
                        "state": "OK",
                        "country": "USA"
                    }
                ],
                "active": true,
                "meta": {
                    "tag": [
                        {
                            "system": "https://smarthealthit.org/tags",
                            "code": "smart-8-2017"
                        }
                    ]
                }
            },
            "request": {
                "method": "PUT",
                "url": "Patient/smart-767980"
            }
        },
        {
            "resource": {
                "resourceType": "Observation",
                "id": "smart-Observation-1749-lab",
                "text": {
                    "div": "<div>2004-08-12: CK MB SerPl-mCnc = 7 ng/mL</div>",
                    "status": "generated"
                },
                "category": {
                    "coding": [
                        {
                            "system": "http://hl7.org/fhir/observation-category",
                            "code": "laboratory",
                            "display": "Laboratory"
                        }
                    ],
                    "text": "Laboratory"
                },
                "code": {
                    "coding": [
                        {
                            "system": "http://loinc.org",
                            "code": "13969-1",
                            "display": "CK MB SerPl-mCnc"
                        }
                    ],
                    "text": "CK MB SerPl-mCnc"
                },
                "valueQuantity": {
                    "value": 7,
                    "system": "http://unitsofmeasure.org"
                },
                "status": "final",
                "subject": {
                    "reference": "Patient/smart-767980"
                },
                "meta": {
                    "tag": [
                        {
                            "system": "https://smarthealthit.org/tags",
                            "code": "smart-8-2017"
                        }
                    ]
                }
            },
            "request": {
                "method": "PUT",
                "url": "Observation/smart-Observation-1749-lab"
            }
        },
        {
            "resource": {
                "resourceType": "Observation",
                "id": "smart-Observation-1750-lab",
                "text": {
                    "div": "<div>2004-08-12: Troponin I SerPl-mCnc = 0 ng/mL</div>",
                    "status": "generated"
                },
                "category": {
                    "coding": [
                        {
                            "system": "http://hl7.org/fhir/observation-category",
                            "code": "laboratory",
                            "display": "Laboratory"
                        }
                    ],
                    "text": "Laboratory"
                },
                "code": {
                    "coding": [
                        {
                            "system": "http://loinc.org",
                            "code": "10839-9",
                            "display": "Troponin I SerPl-mCnc"
                        }
                    ],
                    "text": "Troponin I SerPl-mCnc"
                },
                "valueQuantity": {
                    "value": 0,
                    "system": "http://unitsofmeasure.org"
                },
                "status": "final",
                "subject": {
                    "reference": "Patient/smart-767980"
                },
                "meta": {
                    "tag": [
                        {
                            "system": "https://smarthealthit.org/tags",
                            "code": "smart-8-2017"
                        }
                    ]
                }
            },
            "request": {
                "method": "PUT",
                "url": "Observation/smart-Observation-1750-lab"
            }
        },
        {
            "resource": {
                "resourceType": "Observation",
                "id": "smart-Observation-1751-lab",
                "text": {
                    "div": "<div>2004-08-12: Glucose SerPl-mCnc = 142 mg/dL</div>",
                    "status": "generated"
                },
                "category": {
                    "coding": [
                        {
                            "system": "http://hl7.org/fhir/observation-category",
                            "code": "laboratory",
                            "display": "Laboratory"
                        }
                    ],
                    "text": "Laboratory"
                },
                "code": {
                    "coding": [
                        {
                            "system": "http://loinc.org",
                            "code": "2345-7",
                            "display": "Glucose SerPl-mCnc"
                        }
                    ],
                    "text": "Glucose SerPl-mCnc"
                },
                "valueQuantity": {
                    "value": 142,
                    "system": "http://unitsofmeasure.org"
                },
                "status": "final",
                "subject": {
                    "reference": "Patient/smart-767980"
                },
                "meta": {
                    "tag": [
                        {
                            "system": "https://smarthealthit.org/tags",
                            "code": "smart-8-2017"
                        }
                    ]
                }
            },
            "request": {
                "method": "PUT",
                "url": "Observation/smart-Observation-1751-lab"
            }
        },
        {
            "resource": {
                "resourceType": "Observation",
                "id": "smart-Observation-1752-lab",
                "text": {
                    "div": "<div>2004-08-12: BUN SerPl-mCnc = 19 mg/dL</div>",
                    "status": "generated"
                },
                "category": {
                    "coding": [
                        {
                            "system": "http://hl7.org/fhir/observation-category",
                            "code": "laboratory",
                            "display": "Laboratory"
                        }
                    ],
                    "text": "Laboratory"
                },
                "code": {
                    "coding": [
                        {
                            "system": "http://loinc.org",
                            "code": "3094-0",
                            "display": "BUN SerPl-mCnc"
                        }
                    ],
                    "text": "BUN SerPl-mCnc"
                },
                "valueQuantity": {
                    "value": 19,
                    "system": "http://unitsofmeasure.org"
                },
                "status": "final",
                "subject": {
                    "reference": "Patient/smart-767980"
                },
                "meta": {
                    "tag": [
                        {
                            "system": "https://smarthealthit.org/tags",
                            "code": "smart-8-2017"
                        }
                    ]
                }
            },
            "request": {
                "method": "PUT",
                "url": "Observation/smart-Observation-1752-lab"
            }
        },
        {
            "resource": {
                "resourceType": "Observation",
                "id": "smart-Observation-1753-lab",
                "text": {
                    "div": "<div>2004-08-12: CK SerPl-cCnc = 448 U/L</div>",
                    "status": "generated"
                },
                "category": {
                    "coding": [
                        {
                            "system": "http://hl7.org/fhir/observation-category",
                            "code": "laboratory",
                            "display": "Laboratory"
                        }
                    ],
                    "text": "Laboratory"
                },
                "code": {
                    "coding": [
                        {
                            "system": "http://loinc.org",
                            "code": "2157-6",
                            "display": "CK SerPl-cCnc"
                        }
                    ],
                    "text": "CK SerPl-cCnc"
                },
                "valueQuantity": {
                    "value": 448,
                    "system": "http://unitsofmeasure.org"
                },
                "status": "final",
                "subject": {
                    "reference": "Patient/smart-767980"
                },
                "meta": {
                    "tag": [
                        {
                            "system": "https://smarthealthit.org/tags",
                            "code": "smart-8-2017"
                        }
                    ]
                }
            },
            "request": {
                "method": "PUT",
                "url": "Observation/smart-Observation-1753-lab"
            }
        },
        {
            "resource": {
                "resourceType": "Observation",
                "id": "smart-Observation-1754-lab",
                "text": {
                    "div": "<div>2004-08-12: PMV Bld = 8.6 fL</div>",
                    "status": "generated"
                },
                "category": {
                    "coding": [
                        {
                            "system": "http://hl7.org/fhir/observation-category",
                            "code": "laboratory",
                            "display": "Laboratory"
                        }
                    ],
                    "text": "Laboratory"
                },
                "code": {
                    "coding": [
                        {
                            "system": "http://loinc.org",
                            "code": "28542-9",
                            "display": "PMV Bld"
                        }
                    ],
                    "text": "PMV Bld"
                },
                "valueQuantity": {
                    "value": 8.6,
                    "system": "http://unitsofmeasure.org"
                },
                "status": "final",
                "subject": {
                    "reference": "Patient/smart-767980"
                },
                "meta": {
                    "tag": [
                        {
                            "system": "https://smarthealthit.org/tags",
                            "code": "smart-8-2017"
                        }
                    ]
                }
            },
            "request": {
                "method": "PUT",
                "url": "Observation/smart-Observation-1754-lab"
            }
        },
        {
            "resource": {
                "resourceType": "Observation",
                "id": "smart-Observation-1755-lab",
                "text": {
                    "div": "<div>2004-08-12: RDW RBC-Rto = 12.9 %</div>",
                    "status": "generated"
                },
                "category": {
                    "coding": [
                        {
                            "system": "http://hl7.org/fhir/observation-category",
                            "code": "laboratory",
                            "display": "Laboratory"
                        }
                    ],
                    "text": "Laboratory"
                },
                "code": {
                    "coding": [
                        {
                            "system": "http://loinc.org",
                            "code": "30385-9",
                            "display": "RDW RBC-Rto"
                        }
                    ],
                    "text": "RDW RBC-Rto"
                },
                "valueQuantity": {
                    "value": 12.9,
                    "system": "http://unitsofmeasure.org"
                },
                "status": "final",
                "subject": {
                    "reference": "Patient/smart-767980"
                },
                "meta": {
                    "tag": [
                        {
                            "system": "https://smarthealthit.org/tags",
                            "code": "smart-8-2017"
                        }
                    ]
                }
            },
            "request": {
                "method": "PUT",
                "url": "Observation/smart-Observation-1755-lab"
            }
        },
        {
            "resource": {
                "resourceType": "Observation",
                "id": "smart-Observation-1756-lab",
                "text": {
                    "div": "<div>2004-08-12: Calcium SerPl-mCnc = 9 mg/dL</div>",
                    "status": "generated"
                },
                "category": {
                    "coding": [
                        {
                            "system": "http://hl7.org/fhir/observation-category",
                            "code": "laboratory",
                            "display": "Laboratory"
                        }
                    ],
                    "text": "Laboratory"
                },
                "code": {
                    "coding": [
                        {
                            "system": "http://loinc.org",
                            "code": "17861-6",
                            "display": "Calcium SerPl-mCnc"
                        }
                    ],
                    "text": "Calcium SerPl-mCnc"
                },
                "valueQuantity": {
                    "value": 9,
                    "system": "http://unitsofmeasure.org"
                },
                "status": "final",
                "subject": {
                    "reference": "Patient/smart-767980"
                },
                "meta": {
                    "tag": [
                        {
                            "system": "https://smarthealthit.org/tags",
                            "code": "smart-8-2017"
                        }
                    ]
                }
            },
            "request": {
                "method": "PUT",
                "url": "Observation/smart-Observation-1756-lab"
            }
        },
        {
            "resource": {
                "resourceType": "Observation",
                "id": "smart-Observation-1757-lab",
                "text": {
                    "div": "<div>2004-08-12: Sodium SerPl-sCnc = 142 mmol/L</div>",
                    "status": "generated"
                },
                "category": {
                    "coding": [
                        {
                            "system": "http://hl7.org/fhir/observation-category",
                            "code": "laboratory",
                            "display": "Laboratory"
                        }
                    ],
                    "text": "Laboratory"
                },
                "code": {
                    "coding": [
                        {
                            "system": "http://loinc.org",
                            "code": "2951-2",
                            "display": "Sodium SerPl-sCnc"
                        }
                    ],
                    "text": "Sodium SerPl-sCnc"
                },
                "valueQuantity": {
                    "value": 142,
                    "system": "http://unitsofmeasure.org"
                },
                "status": "final",
                "subject": {
                    "reference": "Patient/smart-767980"
                },
                "meta": {
                    "tag": [
                        {
                            "system": "https://smarthealthit.org/tags",
                            "code": "smart-8-2017"
                        }
                    ]
                }
            },
            "request": {
                "method": "PUT",
                "url": "Observation/smart-Observation-1757-lab"
            }
        },
        {
            "resource": {
                "resourceType": "Observation",
                "id": "smart-Observation-1758-lab",
                "text": {
                    "div": "<div>2004-08-12: Creat SerPl-mCnc = 1.1 mg/dL</div>",
                    "status": "generated"
                },
                "category": {
                    "coding": [
                        {
                            "system": "http://hl7.org/fhir/observation-category",
                            "code": "laboratory",
                            "display": "Laboratory"
                        }
                    ],
                    "text": "Laboratory"
                },
                "code": {
                    "coding": [
                        {
                            "system": "http://loinc.org",
                            "code": "2160-0",
                            "display": "Creat SerPl-mCnc"
                        }
                    ],
                    "text": "Creat SerPl-mCnc"
                },
                "valueQuantity": {
                    "value": 1.1,
                    "system": "http://unitsofmeasure.org"
                },
                "status": "final",
                "subject": {
                    "reference": "Patient/smart-767980"
                },
                "meta": {
                    "tag": [
                        {
                            "system": "https://smarthealthit.org/tags",
                            "code": "smart-8-2017"
                        }
                    ]
                }
            },
            "request": {
                "method": "PUT",
                "url": "Observation/smart-Observation-1758-lab"
            }
        },
        {
            "resource": {
                "resourceType": "Observation",
                "id": "smart-Observation-1759-lab",
                "text": {
                    "div": "<div>2004-08-12: Potassium SerPl-sCnc = 3.9 mmol/L</div>",
                    "status": "generated"
                },
                "category": {
                    "coding": [
                        {
                            "system": "http://hl7.org/fhir/observation-category",
                            "code": "laboratory",
                            "display": "Laboratory"
                        }
                    ],
                    "text": "Laboratory"
                },
                "code": {
                    "coding": [
                        {
                            "system": "http://loinc.org",
                            "code": "2823-3",
                            "display": "Potassium SerPl-sCnc"
                        }
                    ],
                    "text": "Potassium SerPl-sCnc"
                },
                "valueQuantity": {
                    "value": 3.9,
                    "system": "http://unitsofmeasure.org"
                },
                "status": "final",
                "subject": {
                    "reference": "Patient/smart-767980"
                },
                "meta": {
                    "tag": [
                        {
                            "system": "https://smarthealthit.org/tags",
                            "code": "smart-8-2017"
                        }
                    ]
                }
            },
            "request": {
                "method": "PUT",
                "url": "Observation/smart-Observation-1759-lab"
            }
        },
        {
            "resource": {
                "resourceType": "Observation",
                "id": "smart-Observation-1760-lab",
                "text": {
                    "div": "<div>2004-08-12: Chloride SerPl-sCnc = 105 mmol/L</div>",
                    "status": "generated"
                },
                "category": {
                    "coding": [
                        {
                            "system": "http://hl7.org/fhir/observation-category",
                            "code": "laboratory",
                            "display": "Laboratory"
                        }
                    ],
                    "text": "Laboratory"
                },
                "code": {
                    "coding": [
                        {
                            "system": "http://loinc.org",
                            "code": "2075-0",
                            "display": "Chloride SerPl-sCnc"
                        }
                    ],
                    "text": "Chloride SerPl-sCnc"
                },
                "valueQuantity": {
                    "value": 105,
                    "system": "http://unitsofmeasure.org"
                },
                "status": "final",
                "subject": {
                    "reference": "Patient/smart-767980"
                },
                "meta": {
                    "tag": [
                        {
                            "system": "https://smarthealthit.org/tags",
                            "code": "smart-8-2017"
                        }
                    ]
                }
            },
            "request": {
                "method": "PUT",
                "url": "Observation/smart-Observation-1760-lab"
            }
        },
        {
            "resource": {
                "resourceType": "Observation",
                "id": "smart-Observation-1761-lab",
                "text": {
                    "div": "<div>2004-08-12: Neutrophils NFr Bld = 65 %</div>",
                    "status": "generated"
                },
                "category": {
                    "coding": [
                        {
                            "system": "http://hl7.org/fhir/observation-category",
                            "code": "laboratory",
                            "display": "Laboratory"
                        }
                    ],
                    "text": "Laboratory"
                },
                "code": {
                    "coding": [
                        {
                            "system": "http://loinc.org",
                            "code": "26511-6",
                            "display": "Neutrophils NFr Bld"
                        }
                    ],
                    "text": "Neutrophils NFr Bld"
                },
                "valueQuantity": {
                    "value": 65,
                    "system": "http://unitsofmeasure.org"
                },
                "status": "final",
                "subject": {
                    "reference": "Patient/smart-767980"
                },
                "meta": {
                    "tag": [
                        {
                            "system": "https://smarthealthit.org/tags",
                            "code": "smart-8-2017"
                        }
                    ]
                }
            },
            "request": {
                "method": "PUT",
                "url": "Observation/smart-Observation-1761-lab"
            }
        },
        {
            "resource": {
                "resourceType": "Observation",
                "id": "smart-Observation-1762-lab",
                "text": {
                    "div": "<div>2004-08-12: Lymphocytes NFr Bld = 27 %</div>",
                    "status": "generated"
                },
                "category": {
                    "coding": [
                        {
                            "system": "http://hl7.org/fhir/observation-category",
                            "code": "laboratory",
                            "display": "Laboratory"
                        }
                    ],
                    "text": "Laboratory"
                },
                "code": {
                    "coding": [
                        {
                            "system": "http://loinc.org",
                            "code": "26478-8",
                            "display": "Lymphocytes NFr Bld"
                        }
                    ],
                    "text": "Lymphocytes NFr Bld"
                },
                "valueQuantity": {
                    "value": 27,
                    "system": "http://unitsofmeasure.org"
                },
                "status": "final",
                "subject": {
                    "reference": "Patient/smart-767980"
                },
                "meta": {
                    "tag": [
                        {
                            "system": "https://smarthealthit.org/tags",
                            "code": "smart-8-2017"
                        }
                    ]
                }
            },
            "request": {
                "method": "PUT",
                "url": "Observation/smart-Observation-1762-lab"
            }
        },
        {
            "resource": {
                "resourceType": "Observation",
                "id": "smart-Observation-1763-lab",
                "text": {
                    "div": "<div>2004-08-12: Eosinophil NFr Bld = 2 %</div>",
                    "status": "generated"
                },
                "category": {
                    "coding": [
                        {
                            "system": "http://hl7.org/fhir/observation-category",
                            "code": "laboratory",
                            "display": "Laboratory"
                        }
                    ],
                    "text": "Laboratory"
                },
                "code": {
                    "coding": [
                        {
                            "system": "http://loinc.org",
                            "code": "26450-7",
                            "display": "Eosinophil NFr Bld"
                        }
                    ],
                    "text": "Eosinophil NFr Bld"
                },
                "valueQuantity": {
                    "value": 2,
                    "system": "http://unitsofmeasure.org"
                },
                "status": "final",
                "subject": {
                    "reference": "Patient/smart-767980"
                },
                "meta": {
                    "tag": [
                        {
                            "system": "https://smarthealthit.org/tags",
                            "code": "smart-8-2017"
                        }
                    ]
                }
            },
            "request": {
                "method": "PUT",
                "url": "Observation/smart-Observation-1763-lab"
            }
        },
        {
            "resource": {
                "resourceType": "Observation",
                "id": "smart-Observation-1764-lab",
                "text": {
                    "div": "<div>2004-08-12: Hgb Bld-mCnc = 17.5 g/dL</div>",
                    "status": "generated"
                },
                "category": {
                    "coding": [
                        {
                            "system": "http://hl7.org/fhir/observation-category",
                            "code": "laboratory",
                            "display": "Laboratory"
                        }
                    ],
                    "text": "Laboratory"
                },
                "code": {
                    "coding": [
                        {
                            "system": "http://loinc.org",
                            "code": "718-7",
                            "display": "Hgb Bld-mCnc"
                        }
                    ],
                    "text": "Hgb Bld-mCnc"
                },
                "valueQuantity": {
                    "value": 17.5,
                    "system": "http://unitsofmeasure.org"
                },
                "status": "final",
                "subject": {
                    "reference": "Patient/smart-767980"
                },
                "meta": {
                    "tag": [
                        {
                            "system": "https://smarthealthit.org/tags",
                            "code": "smart-8-2017"
                        }
                    ]
                }
            },
            "request": {
                "method": "PUT",
                "url": "Observation/smart-Observation-1764-lab"
            }
        },
        {
            "resource": {
                "resourceType": "Observation",
                "id": "smart-Observation-1765-lab",
                "text": {
                    "div": "<div>2004-08-12: WBC # Bld = 9.8 10*3/uL</div>",
                    "status": "generated"
                },
                "category": {
                    "coding": [
                        {
                            "system": "http://hl7.org/fhir/observation-category",
                            "code": "laboratory",
                            "display": "Laboratory"
                        }
                    ],
                    "text": "Laboratory"
                },
                "code": {
                    "coding": [
                        {
                            "system": "http://loinc.org",
                            "code": "26464-8",
                            "display": "WBC # Bld"
                        }
                    ],
                    "text": "WBC # Bld"
                },
                "valueQuantity": {
                    "value": 9.8,
                    "system": "http://unitsofmeasure.org"
                },
                "status": "final",
                "subject": {
                    "reference": "Patient/smart-767980"
                },
                "meta": {
                    "tag": [
                        {
                            "system": "https://smarthealthit.org/tags",
                            "code": "smart-8-2017"
                        }
                    ]
                }
            },
            "request": {
                "method": "PUT",
                "url": "Observation/smart-Observation-1765-lab"
            }
        },
        {
            "resource": {
                "resourceType": "Observation",
                "id": "smart-Observation-1766-lab",
                "text": {
                    "div": "<div>2004-08-12: RBC # Bld Auto = 5.44 10*6/uL</div>",
                    "status": "generated"
                },
                "category": {
                    "coding": [
                        {
                            "system": "http://hl7.org/fhir/observation-category",
                            "code": "laboratory",
                            "display": "Laboratory"
                        }
                    ],
                    "text": "Laboratory"
                },
                "code": {
                    "coding": [
                        {
                            "system": "http://loinc.org",
                            "code": "789-8",
                            "display": "RBC # Bld Auto"
                        }
                    ],
                    "text": "RBC # Bld Auto"
                },
                "valueQuantity": {
                    "value": 5.44,
                    "system": "http://unitsofmeasure.org"
                },
                "status": "final",
                "subject": {
                    "reference": "Patient/smart-767980"
                },
                "meta": {
                    "tag": [
                        {
                            "system": "https://smarthealthit.org/tags",
                            "code": "smart-8-2017"
                        }
                    ]
                }
            },
            "request": {
                "method": "PUT",
                "url": "Observation/smart-Observation-1766-lab"
            }
        },
        {
            "resource": {
                "resourceType": "Observation",
                "id": "smart-Observation-1767-lab",
                "text": {
                    "div": "<div>2004-08-12: Platelet # Bld = 248 10*3/uL</div>",
                    "status": "generated"
                },
                "category": {
                    "coding": [
                        {
                            "system": "http://hl7.org/fhir/observation-category",
                            "code": "laboratory",
                            "display": "Laboratory"
                        }
                    ],
                    "text": "Laboratory"
                },
                "code": {
                    "coding": [
                        {
                            "system": "http://loinc.org",
                            "code": "26515-7",
                            "display": "Platelet # Bld"
                        }
                    ],
                    "text": "Platelet # Bld"
                },
                "valueQuantity": {
                    "value": 248,
                    "system": "http://unitsofmeasure.org"
                },
                "status": "final",
                "subject": {
                    "reference": "Patient/smart-767980"
                },
                "meta": {
                    "tag": [
                        {
                            "system": "https://smarthealthit.org/tags",
                            "code": "smart-8-2017"
                        }
                    ]
                }
            },
            "request": {
                "method": "PUT",
                "url": "Observation/smart-Observation-1767-lab"
            }
        },
        {
            "resource": {
                "resourceType": "Observation",
                "id": "smart-Observation-1768-lab",
                "text": {
                    "div": "<div>2004-08-12: MCV RBC = 90.8 fL</div>",
                    "status": "generated"
                },
                "category": {
                    "coding": [
                        {
                            "system": "http://hl7.org/fhir/observation-category",
                            "code": "laboratory",
                            "display": "Laboratory"
                        }
                    ],
                    "text": "Laboratory"
                },
                "code": {
                    "coding": [
                        {
                            "system": "http://loinc.org",
                            "code": "30428-7",
                            "display": "MCV RBC"
                        }
                    ],
                    "text": "MCV RBC"
                },
                "valueQuantity": {
                    "value": 90.8,
                    "system": "http://unitsofmeasure.org"
                },
                "status": "final",
                "subject": {
                    "reference": "Patient/smart-767980"
                },
                "meta": {
                    "tag": [
                        {
                            "system": "https://smarthealthit.org/tags",
                            "code": "smart-8-2017"
                        }
                    ]
                }
            },
            "request": {
                "method": "PUT",
                "url": "Observation/smart-Observation-1768-lab"
            }
        },
        {
            "resource": {
                "resourceType": "Observation",
                "id": "smart-Observation-1769-lab",
                "text": {
                    "div": "<div>2004-08-12: MCH RBC Qn Auto = 32.2 pg</div>",
                    "status": "generated"
                },
                "category": {
                    "coding": [
                        {
                            "system": "http://hl7.org/fhir/observation-category",
                            "code": "laboratory",
                            "display": "Laboratory"
                        }
                    ],
                    "text": "Laboratory"
                },
                "code": {
                    "coding": [
                        {
                            "system": "http://loinc.org",
                            "code": "785-6",
                            "display": "MCH RBC Qn Auto"
                        }
                    ],
                    "text": "MCH RBC Qn Auto"
                },
                "valueQuantity": {
                    "value": 32.2,
                    "system": "http://unitsofmeasure.org"
                },
                "status": "final",
                "subject": {
                    "reference": "Patient/smart-767980"
                },
                "meta": {
                    "tag": [
                        {
                            "system": "https://smarthealthit.org/tags",
                            "code": "smart-8-2017"
                        }
                    ]
                }
            },
            "request": {
                "method": "PUT",
                "url": "Observation/smart-Observation-1769-lab"
            }
        },
        {
            "resource": {
                "resourceType": "Observation",
                "id": "smart-Observation-1770-lab",
                "text": {
                    "div": "<div>2004-08-12: MCHC RBC Auto-mCnc = 35.5 g/dL</div>",
                    "status": "generated"
                },
                "category": {
                    "coding": [
                        {
                            "system": "http://hl7.org/fhir/observation-category",
                            "code": "laboratory",
                            "display": "Laboratory"
                        }
                    ],
                    "text": "Laboratory"
                },
                "code": {
                    "coding": [
                        {
                            "system": "http://loinc.org",
                            "code": "786-4",
                            "display": "MCHC RBC Auto-mCnc"
                        }
                    ],
                    "text": "MCHC RBC Auto-mCnc"
                },
                "valueQuantity": {
                    "value": 35.5,
                    "system": "http://unitsofmeasure.org"
                },
                "status": "final",
                "subject": {
                    "reference": "Patient/smart-767980"
                },
                "meta": {
                    "tag": [
                        {
                            "system": "https://smarthealthit.org/tags",
                            "code": "smart-8-2017"
                        }
                    ]
                }
            },
            "request": {
                "method": "PUT",
                "url": "Observation/smart-Observation-1770-lab"
            }
        },
        {
            "resource": {
                "resourceType": "MedicationOrder",
                "id": "smart-MedicationOrder-52",
                "text": {
                    "div": "<div>\n      Cephalexin 500 MG Oral Capsule (rxnorm: 309114)\n    </div>",
                    "status": "generated"
                },
                "status": "active",
                "patient": {
                    "reference": "Patient/smart-767980"
                },
                "dosageInstruction": [
                    {
                        "timing": {
                            "repeat": {
                                "boundsPeriod": {
                                    "start": "2004-10-18"
                                },
                                "frequency": 4,
                                "period": 1,
                                "periodUnits": "d"
                            }
                        },
                        "text": "1 qid"
                    }
                ],
                "dispenseRequest": {
                    "numberOfRepeatsAllowed": "1",
                    "quantity": {
                        "value": 40,
                        "system": "http://unitsofmeasure.org",
                        "code": "{tablet}"
                    },
                    "expectedSupplyDuration": {
                        "value": 10,
                        "system": "http://unitsofmeasure.org",
                        "code": "d"
                    }
                },
                "meta": {
                    "tag": [
                        {
                            "system": "https://smarthealthit.org/tags",
                            "code": "smart-8-2017"
                        }
                    ]
                }
            },
            "request": {
                "method": "PUT",
                "url": "MedicationOrder/smart-MedicationOrder-52"
            }
        },
        {
            "resource": {
                "resourceType": "MedicationDispense",
                "id": "smart-MedicationDispense-544",
                "text": {
                    "div": "<div>\n      Dispensed 40 tablets = 10 day supply of Cephalexin 500 MG Oral Capsule\n    </div>",
                    "status": "generated"
                },
                "status": "completed",
                "patient": {
                    "reference": "Patient/smart-767980"
                },
                "authorizingPrescription": [
                    {
                        "reference": "MedicationOrder/smart-MedicationOrder-52"
                    }
                ],
                "quantity": {
                    "value": 40,
                    "system": "http://unitsofmeasure.org",
                    "code": "{tablets}"
                },
                "daysSupply": {
                    "value": 10,
                    "system": "http://unitsofmeasure.org",
                    "code": "d"
                },
                "whenHandedOver": "2004-12-10",
                "meta": {
                    "tag": [
                        {
                            "system": "https://smarthealthit.org/tags",
                            "code": "smart-8-2017"
                        }
                    ]
                }
            },
            "request": {
                "method": "PUT",
                "url": "MedicationDispense/smart-MedicationDispense-544"
            }
        },
        {
            "resource": {
                "resourceType": "MedicationDispense",
                "id": "smart-MedicationDispense-543",
                "text": {
                    "div": "<div>\n      Dispensed 40 tablets = 10 day supply of Cephalexin 500 MG Oral Capsule\n    </div>",
                    "status": "generated"
                },
                "status": "completed",
                "patient": {
                    "reference": "Patient/smart-767980"
                },
                "authorizingPrescription": [
                    {
                        "reference": "MedicationOrder/smart-MedicationOrder-52"
                    }
                ],
                "quantity": {
                    "value": 40,
                    "system": "http://unitsofmeasure.org",
                    "code": "{tablets}"
                },
                "daysSupply": {
                    "value": 10,
                    "system": "http://unitsofmeasure.org",
                    "code": "d"
                },
                "whenHandedOver": "2004-10-18",
                "meta": {
                    "tag": [
                        {
                            "system": "https://smarthealthit.org/tags",
                            "code": "smart-8-2017"
                        }
                    ]
                }
            },
            "request": {
                "method": "PUT",
                "url": "MedicationDispense/smart-MedicationDispense-543"
            }
        },
        {
            "resource": {
                "resourceType": "MedicationDispense",
                "id": "smart-MedicationDispense-545",
                "text": {
                    "div": "<div>\n      Dispensed 40 tablets = 10 day supply of Cephalexin 500 MG Oral Capsule\n    </div>",
                    "status": "generated"
                },
                "status": "completed",
                "patient": {
                    "reference": "Patient/smart-767980"
                },
                "authorizingPrescription": [
                    {
                        "reference": "MedicationOrder/smart-MedicationOrder-52"
                    }
                ],
                "quantity": {
                    "value": 40,
                    "system": "http://unitsofmeasure.org",
                    "code": "{tablets}"
                },
                "daysSupply": {
                    "value": 10,
                    "system": "http://unitsofmeasure.org",
                    "code": "d"
                },
                "whenHandedOver": "2005-11-11",
                "meta": {
                    "tag": [
                        {
                            "system": "https://smarthealthit.org/tags",
                            "code": "smart-8-2017"
                        }
                    ]
                }
            },
            "request": {
                "method": "PUT",
                "url": "MedicationDispense/smart-MedicationDispense-545"
            }
        },
        {
            "resource": {
                "resourceType": "MedicationOrder",
                "id": "smart-MedicationOrder-53",
                "text": {
                    "div": "<div>\n      Metoprolol 50 MG Oral Tablet (rxnorm: 866514)\n    </div>",
                    "status": "generated"
                },
                "status": "active",
                "patient": {
                    "reference": "Patient/smart-767980"
                },
                "dosageInstruction": [
                    {
                        "timing": {
                            "repeat": {
                                "boundsPeriod": {
                                    "start": "2004-10-29"
                                },
                                "frequency": 2,
                                "period": 1,
                                "periodUnits": "d"
                            }
                        },
                        "text": "1 bid"
                    }
                ],
                "dispenseRequest": {
                    "numberOfRepeatsAllowed": "1",
                    "quantity": {
                        "value": 60,
                        "system": "http://unitsofmeasure.org",
                        "code": "{tablet}"
                    },
                    "expectedSupplyDuration": {
                        "value": 30,
                        "system": "http://unitsofmeasure.org",
                        "code": "d"
                    }
                },
                "meta": {
                    "tag": [
                        {
                            "system": "https://smarthealthit.org/tags",
                            "code": "smart-8-2017"
                        }
                    ]
                }
            },
            "request": {
                "method": "PUT",
                "url": "MedicationOrder/smart-MedicationOrder-53"
            }
        },
        {
            "resource": {
                "resourceType": "MedicationDispense",
                "id": "smart-MedicationDispense-547",
                "text": {
                    "div": "<div>\n      Dispensed 60 tablets = 30 day supply of Metoprolol 50 MG Oral Tablet\n    </div>",
                    "status": "generated"
                },
                "status": "completed",
                "patient": {
                    "reference": "Patient/smart-767980"
                },
                "authorizingPrescription": [
                    {
                        "reference": "MedicationOrder/smart-MedicationOrder-53"
                    }
                ],
                "quantity": {
                    "value": 60,
                    "system": "http://unitsofmeasure.org",
                    "code": "{tablets}"
                },
                "daysSupply": {
                    "value": 30,
                    "system": "http://unitsofmeasure.org",
                    "code": "d"
                },
                "whenHandedOver": "2004-10-29",
                "meta": {
                    "tag": [
                        {
                            "system": "https://smarthealthit.org/tags",
                            "code": "smart-8-2017"
                        }
                    ]
                }
            },
            "request": {
                "method": "PUT",
                "url": "MedicationDispense/smart-MedicationDispense-547"
            }
        },
        {
            "resource": {
                "resourceType": "MedicationOrder",
                "id": "smart-MedicationOrder-54",
                "text": {
                    "div": "<div>\n      Guaifenesin 600 MG / Phenylephrine 30 MG Extended Release Tablet [Crantex LA] (rxnorm: 283342)\n    </div>",
                    "status": "generated"
                },
                "status": "active",
                "patient": {
                    "reference": "Patient/smart-767980"
                },
                "dosageInstruction": [
                    {
                        "timing": {
                            "repeat": {
                                "boundsPeriod": {
                                    "start": "2004-12-10"
                                },
                                "frequency": 2,
                                "period": 1,
                                "periodUnits": "d"
                            }
                        },
                        "text": "1 bid"
                    }
                ],
                "dispenseRequest": {
                    "numberOfRepeatsAllowed": "1",
                    "quantity": {
                        "value": 20,
                        "system": "http://unitsofmeasure.org",
                        "code": "{tablet}"
                    },
                    "expectedSupplyDuration": {
                        "value": 10,
                        "system": "http://unitsofmeasure.org",
                        "code": "d"
                    }
                },
                "meta": {
                    "tag": [
                        {
                            "system": "https://smarthealthit.org/tags",
                            "code": "smart-8-2017"
                        }
                    ]
                }
            },
            "request": {
                "method": "PUT",
                "url": "MedicationOrder/smart-MedicationOrder-54"
            }
        },
        {
            "resource": {
                "resourceType": "MedicationDispense",
                "id": "smart-MedicationDispense-540",
                "text": {
                    "div": "<div>\n      Dispensed 20 tablets = 10 day supply of Guaifenesin 600 MG / Phenylephrine 30 MG Extended Release Tablet [Crantex LA]\n    </div>",
                    "status": "generated"
                },
                "status": "completed",
                "patient": {
                    "reference": "Patient/smart-767980"
                },
                "authorizingPrescription": [
                    {
                        "reference": "MedicationOrder/smart-MedicationOrder-54"
                    }
                ],
                "quantity": {
                    "value": 20,
                    "system": "http://unitsofmeasure.org",
                    "code": "{tablets}"
                },
                "daysSupply": {
                    "value": 10,
                    "system": "http://unitsofmeasure.org",
                    "code": "d"
                },
                "whenHandedOver": "2004-12-10",
                "meta": {
                    "tag": [
                        {
                            "system": "https://smarthealthit.org/tags",
                            "code": "smart-8-2017"
                        }
                    ]
                }
            },
            "request": {
                "method": "PUT",
                "url": "MedicationDispense/smart-MedicationDispense-540"
            }
        },
        {
            "resource": {
                "resourceType": "MedicationOrder",
                "id": "smart-MedicationOrder-55",
                "text": {
                    "div": "<div>\n      Metformin 500 MG Oral Tablet (rxnorm: 861007)\n    </div>",
                    "status": "generated"
                },
                "status": "active",
                "patient": {
                    "reference": "Patient/smart-767980"
                },
                "dosageInstruction": [
                    {
                        "timing": {
                            "repeat": {
                                "boundsPeriod": {
                                    "start": "2004-12-10"
                                },
                                "frequency": 2,
                                "period": 1,
                                "periodUnits": "d"
                            }
                        },
                        "text": "1 bid"
                    }
                ],
                "dispenseRequest": {
                    "numberOfRepeatsAllowed": "1",
                    "quantity": {
                        "value": 60,
                        "system": "http://unitsofmeasure.org",
                        "code": "{tablet}"
                    },
                    "expectedSupplyDuration": {
                        "value": 30,
                        "system": "http://unitsofmeasure.org",
                        "code": "d"
                    }
                },
                "meta": {
                    "tag": [
                        {
                            "system": "https://smarthealthit.org/tags",
                            "code": "smart-8-2017"
                        }
                    ]
                }
            },
            "request": {
                "method": "PUT",
                "url": "MedicationOrder/smart-MedicationOrder-55"
            }
        },
        {
            "resource": {
                "resourceType": "MedicationDispense",
                "id": "smart-MedicationDispense-551",
                "text": {
                    "div": "<div>\n      Dispensed 60 tablets = 30 day supply of Metformin 500 MG Oral Tablet\n    </div>",
                    "status": "generated"
                },
                "status": "completed",
                "patient": {
                    "reference": "Patient/smart-767980"
                },
                "authorizingPrescription": [
                    {
                        "reference": "MedicationOrder/smart-MedicationOrder-55"
                    }
                ],
                "quantity": {
                    "value": 60,
                    "system": "http://unitsofmeasure.org",
                    "code": "{tablets}"
                },
                "daysSupply": {
                    "value": 30,
                    "system": "http://unitsofmeasure.org",
                    "code": "d"
                },
                "whenHandedOver": "2005-01-05",
                "meta": {
                    "tag": [
                        {
                            "system": "https://smarthealthit.org/tags",
                            "code": "smart-8-2017"
                        }
                    ]
                }
            },
            "request": {
                "method": "PUT",
                "url": "MedicationDispense/smart-MedicationDispense-551"
            }
        },
        {
            "resource": {
                "resourceType": "MedicationDispense",
                "id": "smart-MedicationDispense-550",
                "text": {
                    "div": "<div>\n      Dispensed 60 tablets = 30 day supply of Metformin 500 MG Oral Tablet\n    </div>",
                    "status": "generated"
                },
                "status": "completed",
                "patient": {
                    "reference": "Patient/smart-767980"
                },
                "authorizingPrescription": [
                    {
                        "reference": "MedicationOrder/smart-MedicationOrder-55"
                    }
                ],
                "quantity": {
                    "value": 60,
                    "system": "http://unitsofmeasure.org",
                    "code": "{tablets}"
                },
                "daysSupply": {
                    "value": 30,
                    "system": "http://unitsofmeasure.org",
                    "code": "d"
                },
                "whenHandedOver": "2005-01-01",
                "meta": {
                    "tag": [
                        {
                            "system": "https://smarthealthit.org/tags",
                            "code": "smart-8-2017"
                        }
                    ]
                }
            },
            "request": {
                "method": "PUT",
                "url": "MedicationDispense/smart-MedicationDispense-550"
            }
        },
        {
            "resource": {
                "resourceType": "MedicationDispense",
                "id": "smart-MedicationDispense-549",
                "text": {
                    "div": "<div>\n      Dispensed 60 tablets = 30 day supply of Metformin 500 MG Oral Tablet\n    </div>",
                    "status": "generated"
                },
                "status": "completed",
                "patient": {
                    "reference": "Patient/smart-767980"
                },
                "authorizingPrescription": [
                    {
                        "reference": "MedicationOrder/smart-MedicationOrder-55"
                    }
                ],
                "quantity": {
                    "value": 60,
                    "system": "http://unitsofmeasure.org",
                    "code": "{tablets}"
                },
                "daysSupply": {
                    "value": 30,
                    "system": "http://unitsofmeasure.org",
                    "code": "d"
                },
                "whenHandedOver": "2004-12-10",
                "meta": {
                    "tag": [
                        {
                            "system": "https://smarthealthit.org/tags",
                            "code": "smart-8-2017"
                        }
                    ]
                }
            },
            "request": {
                "method": "PUT",
                "url": "MedicationDispense/smart-MedicationDispense-549"
            }
        },
        {
            "resource": {
                "resourceType": "MedicationOrder",
                "id": "smart-MedicationOrder-56",
                "text": {
                    "div": "<div>\n      Codeine 2 MG/ML / Guaifenesin 20 MG/ML Oral Solution (rxnorm: 309428)\n    </div>",
                    "status": "generated"
                },
                "status": "active",
                "patient": {
                    "reference": "Patient/smart-767980"
                },
                "dosageInstruction": [
                    {
                        "timing": {
                            "repeat": {
                                "boundsPeriod": {
                                    "start": "2004-12-24"
                                },
                                "frequency": 4,
                                "period": 1,
                                "periodUnits": "d"
                            }
                        },
                        "asNeededBoolean": true,
                        "text": "5 mL q6h prn cough"
                    }
                ],
                "dispenseRequest": {
                    "numberOfRepeatsAllowed": "1",
                    "quantity": {
                        "value": 1,
                        "system": "http://unitsofmeasure.org",
                        "code": "mL"
                    },
                    "expectedSupplyDuration": {
                        "value": 6,
                        "system": "http://unitsofmeasure.org",
                        "code": "d"
                    }
                },
                "meta": {
                    "tag": [
                        {
                            "system": "https://smarthealthit.org/tags",
                            "code": "smart-8-2017"
                        }
                    ]
                }
            },
            "request": {
                "method": "PUT",
                "url": "MedicationOrder/smart-MedicationOrder-56"
            }
        },
        {
            "resource": {
                "resourceType": "MedicationOrder",
                "id": "smart-MedicationOrder-57",
                "text": {
                    "div": "<div>\n      24 HR Glipizide 2.5 MG Extended Release Tablet (rxnorm: 310489)\n    </div>",
                    "status": "generated"
                },
                "status": "active",
                "patient": {
                    "reference": "Patient/smart-767980"
                },
                "dosageInstruction": [
                    {
                        "timing": {
                            "repeat": {
                                "boundsPeriod": {
                                    "start": "2005-12-17"
                                },
                                "frequency": 1,
                                "period": 1,
                                "periodUnits": "d"
                            }
                        },
                        "text": "1 daily"
                    }
                ],
                "dispenseRequest": {
                    "numberOfRepeatsAllowed": "1",
                    "quantity": {
                        "value": 30,
                        "system": "http://unitsofmeasure.org",
                        "code": "{tablet}"
                    },
                    "expectedSupplyDuration": {
                        "value": 30,
                        "system": "http://unitsofmeasure.org",
                        "code": "d"
                    }
                },
                "meta": {
                    "tag": [
                        {
                            "system": "https://smarthealthit.org/tags",
                            "code": "smart-8-2017"
                        }
                    ]
                }
            },
            "request": {
                "method": "PUT",
                "url": "MedicationOrder/smart-MedicationOrder-57"
            }
        },
        {
            "resource": {
                "resourceType": "MedicationDispense",
                "id": "smart-MedicationDispense-542",
                "text": {
                    "div": "<div>\n      Dispensed 30 tablets = 30 day supply of 24 HR Glipizide 2.5 MG Extended Release Tablet\n    </div>",
                    "status": "generated"
                },
                "status": "completed",
                "patient": {
                    "reference": "Patient/smart-767980"
                },
                "authorizingPrescription": [
                    {
                        "reference": "MedicationOrder/smart-MedicationOrder-57"
                    }
                ],
                "quantity": {
                    "value": 30,
                    "system": "http://unitsofmeasure.org",
                    "code": "{tablets}"
                },
                "daysSupply": {
                    "value": 30,
                    "system": "http://unitsofmeasure.org",
                    "code": "d"
                },
                "whenHandedOver": "2005-12-17",
                "meta": {
                    "tag": [
                        {
                            "system": "https://smarthealthit.org/tags",
                            "code": "smart-8-2017"
                        }
                    ]
                }
            },
            "request": {
                "method": "PUT",
                "url": "MedicationDispense/smart-MedicationDispense-542"
            }
        },
        {
            "resource": {
                "resourceType": "MedicationOrder",
                "id": "smart-MedicationOrder-58",
                "text": {
                    "div": "<div>\n      ezetimibe 10 MG / Simvastatin 40 MG Oral Tablet [Vytorin] (rxnorm: 543354)\n    </div>",
                    "status": "generated"
                },
                "status": "active",
                "patient": {
                    "reference": "Patient/smart-767980"
                },
                "dosageInstruction": [
                    {
                        "timing": {
                            "repeat": {
                                "boundsPeriod": {
                                    "start": "2005-12-17"
                                },
                                "frequency": 1,
                                "period": 1,
                                "periodUnits": "d"
                            }
                        },
                        "text": "1 qhs"
                    }
                ],
                "dispenseRequest": {
                    "numberOfRepeatsAllowed": "1",
                    "quantity": {
                        "value": 30,
                        "system": "http://unitsofmeasure.org",
                        "code": "{tablet}"
                    },
                    "expectedSupplyDuration": {
                        "value": 30,
                        "system": "http://unitsofmeasure.org",
                        "code": "d"
                    }
                },
                "meta": {
                    "tag": [
                        {
                            "system": "https://smarthealthit.org/tags",
                            "code": "smart-8-2017"
                        }
                    ]
                }
            },
            "request": {
                "method": "PUT",
                "url": "MedicationOrder/smart-MedicationOrder-58"
            }
        },
        {
            "resource": {
                "resourceType": "MedicationDispense",
                "id": "smart-MedicationDispense-554",
                "text": {
                    "div": "<div>\n      Dispensed 30 tablets = 30 day supply of ezetimibe 10 MG / Simvastatin 40 MG Oral Tablet [Vytorin]\n    </div>",
                    "status": "generated"
                },
                "status": "completed",
                "patient": {
                    "reference": "Patient/smart-767980"
                },
                "authorizingPrescription": [
                    {
                        "reference": "MedicationOrder/smart-MedicationOrder-58"
                    }
                ],
                "quantity": {
                    "value": 30,
                    "system": "http://unitsofmeasure.org",
                    "code": "{tablets}"
                },
                "daysSupply": {
                    "value": 30,
                    "system": "http://unitsofmeasure.org",
                    "code": "d"
                },
                "whenHandedOver": "2005-12-17",
                "meta": {
                    "tag": [
                        {
                            "system": "https://smarthealthit.org/tags",
                            "code": "smart-8-2017"
                        }
                    ]
                }
            },
            "request": {
                "method": "PUT",
                "url": "MedicationDispense/smart-MedicationDispense-554"
            }
        },
        {
            "resource": {
                "resourceType": "MedicationOrder",
                "id": "smart-MedicationOrder-59",
                "text": {
                    "div": "<div>\n      ezetimibe 10 MG Oral Tablet [Zetia] (rxnorm: 352304)\n    </div>",
                    "status": "generated"
                },
                "status": "active",
                "patient": {
                    "reference": "Patient/smart-767980"
                },
                "dosageInstruction": [
                    {
                        "timing": {
                            "repeat": {
                                "boundsPeriod": {
                                    "start": "2006-01-06"
                                },
                                "frequency": 1,
                                "period": 1,
                                "periodUnits": "d"
                            }
                        },
                        "text": "1 daily"
                    }
                ],
                "dispenseRequest": {
                    "numberOfRepeatsAllowed": "1",
                    "quantity": {
                        "value": 30,
                        "system": "http://unitsofmeasure.org",
                        "code": "{tablet}"
                    },
                    "expectedSupplyDuration": {
                        "value": 30,
                        "system": "http://unitsofmeasure.org",
                        "code": "d"
                    }
                },
                "meta": {
                    "tag": [
                        {
                            "system": "https://smarthealthit.org/tags",
                            "code": "smart-8-2017"
                        }
                    ]
                }
            },
            "request": {
                "method": "PUT",
                "url": "MedicationOrder/smart-MedicationOrder-59"
            }
        },
        {
            "resource": {
                "resourceType": "MedicationDispense",
                "id": "smart-MedicationDispense-553",
                "text": {
                    "div": "<div>\n      Dispensed 30 tablets = 30 day supply of ezetimibe 10 MG Oral Tablet [Zetia]\n    </div>",
                    "status": "generated"
                },
                "status": "completed",
                "patient": {
                    "reference": "Patient/smart-767980"
                },
                "authorizingPrescription": [
                    {
                        "reference": "MedicationOrder/smart-MedicationOrder-59"
                    }
                ],
                "quantity": {
                    "value": 30,
                    "system": "http://unitsofmeasure.org",
                    "code": "{tablets}"
                },
                "daysSupply": {
                    "value": 30,
                    "system": "http://unitsofmeasure.org",
                    "code": "d"
                },
                "whenHandedOver": "2006-01-09",
                "meta": {
                    "tag": [
                        {
                            "system": "https://smarthealthit.org/tags",
                            "code": "smart-8-2017"
                        }
                    ]
                }
            },
            "request": {
                "method": "PUT",
                "url": "MedicationDispense/smart-MedicationDispense-553"
            }
        },
        {
            "resource": {
                "resourceType": "MedicationDispense",
                "id": "smart-MedicationDispense-552",
                "text": {
                    "div": "<div>\n      Dispensed 30 tablets = 30 day supply of ezetimibe 10 MG Oral Tablet [Zetia]\n    </div>",
                    "status": "generated"
                },
                "status": "completed",
                "patient": {
                    "reference": "Patient/smart-767980"
                },
                "authorizingPrescription": [
                    {
                        "reference": "MedicationOrder/smart-MedicationOrder-59"
                    }
                ],
                "quantity": {
                    "value": 30,
                    "system": "http://unitsofmeasure.org",
                    "code": "{tablets}"
                },
                "daysSupply": {
                    "value": 30,
                    "system": "http://unitsofmeasure.org",
                    "code": "d"
                },
                "whenHandedOver": "2006-01-06",
                "meta": {
                    "tag": [
                        {
                            "system": "https://smarthealthit.org/tags",
                            "code": "smart-8-2017"
                        }
                    ]
                }
            },
            "request": {
                "method": "PUT",
                "url": "MedicationDispense/smart-MedicationDispense-552"
            }
        },
        {
            "resource": {
                "resourceType": "MedicationOrder",
                "id": "smart-MedicationOrder-60",
                "text": {
                    "div": "<div>\n      rosuvastatin 10 MG Oral Tablet [Crestor] (rxnorm: 859749)\n    </div>",
                    "status": "generated"
                },
                "status": "active",
                "patient": {
                    "reference": "Patient/smart-767980"
                },
                "dosageInstruction": [
                    {
                        "timing": {
                            "repeat": {
                                "boundsPeriod": {
                                    "start": "2006-01-06"
                                },
                                "frequency": 1,
                                "period": 1,
                                "periodUnits": "d"
                            }
                        },
                        "text": "1 qhs"
                    }
                ],
                "dispenseRequest": {
                    "numberOfRepeatsAllowed": "1",
                    "quantity": {
                        "value": 30,
                        "system": "http://unitsofmeasure.org",
                        "code": "{tablet}"
                    },
                    "expectedSupplyDuration": {
                        "value": 30,
                        "system": "http://unitsofmeasure.org",
                        "code": "d"
                    }
                },
                "meta": {
                    "tag": [
                        {
                            "system": "https://smarthealthit.org/tags",
                            "code": "smart-8-2017"
                        }
                    ]
                }
            },
            "request": {
                "method": "PUT",
                "url": "MedicationOrder/smart-MedicationOrder-60"
            }
        },
        {
            "resource": {
                "resourceType": "MedicationDispense",
                "id": "smart-MedicationDispense-548",
                "text": {
                    "div": "<div>\n      Dispensed 30 tablets = 30 day supply of rosuvastatin 10 MG Oral Tablet [Crestor]\n    </div>",
                    "status": "generated"
                },
                "status": "completed",
                "patient": {
                    "reference": "Patient/smart-767980"
                },
                "authorizingPrescription": [
                    {
                        "reference": "MedicationOrder/smart-MedicationOrder-60"
                    }
                ],
                "quantity": {
                    "value": 30,
                    "system": "http://unitsofmeasure.org",
                    "code": "{tablets}"
                },
                "daysSupply": {
                    "value": 30,
                    "system": "http://unitsofmeasure.org",
                    "code": "d"
                },
                "whenHandedOver": "2006-01-06",
                "meta": {
                    "tag": [
                        {
                            "system": "https://smarthealthit.org/tags",
                            "code": "smart-8-2017"
                        }
                    ]
                }
            },
            "request": {
                "method": "PUT",
                "url": "MedicationDispense/smart-MedicationDispense-548"
            }
        },
        {
            "resource": {
                "resourceType": "MedicationOrder",
                "id": "smart-MedicationOrder-61",
                "text": {
                    "div": "<div>\n      Acetaminophen 650 MG / propoxyphene napsylate 100 MG Oral Tablet (rxnorm: 828576)\n    </div>",
                    "status": "generated"
                },
                "status": "active",
                "patient": {
                    "reference": "Patient/smart-767980"
                },
                "dosageInstruction": [
                    {
                        "timing": {
                            "repeat": {
                                "boundsPeriod": {
                                    "start": "2009-08-14"
                                },
                                "frequency": 4,
                                "period": 1,
                                "periodUnits": "d"
                            }
                        },
                        "asNeededBoolean": true,
                        "text": "1 q6h prn pain"
                    }
                ],
                "dispenseRequest": {
                    "numberOfRepeatsAllowed": "1",
                    "quantity": {
                        "value": 20,
                        "system": "http://unitsofmeasure.org",
                        "code": "{tablet}"
                    },
                    "expectedSupplyDuration": {
                        "value": 4,
                        "system": "http://unitsofmeasure.org",
                        "code": "d"
                    }
                },
                "meta": {
                    "tag": [
                        {
                            "system": "https://smarthealthit.org/tags",
                            "code": "smart-8-2017"
                        }
                    ]
                }
            },
            "request": {
                "method": "PUT",
                "url": "MedicationOrder/smart-MedicationOrder-61"
            }
        },
        {
            "resource": {
                "resourceType": "MedicationDispense",
                "id": "smart-MedicationDispense-541",
                "text": {
                    "div": "<div>\n      Dispensed 20 tablets = 4 day supply of Acetaminophen 650 MG / propoxyphene napsylate 100 MG Oral Tablet\n    </div>",
                    "status": "generated"
                },
                "status": "completed",
                "patient": {
                    "reference": "Patient/smart-767980"
                },
                "authorizingPrescription": [
                    {
                        "reference": "MedicationOrder/smart-MedicationOrder-61"
                    }
                ],
                "quantity": {
                    "value": 20,
                    "system": "http://unitsofmeasure.org",
                    "code": "{tablets}"
                },
                "daysSupply": {
                    "value": 4,
                    "system": "http://unitsofmeasure.org",
                    "code": "d"
                },
                "whenHandedOver": "2009-08-14",
                "meta": {
                    "tag": [
                        {
                            "system": "https://smarthealthit.org/tags",
                            "code": "smart-8-2017"
                        }
                    ]
                }
            },
            "request": {
                "method": "PUT",
                "url": "MedicationDispense/smart-MedicationDispense-541"
            }
        },
        {
            "resource": {
                "resourceType": "Condition",
                "id": "smart-Condition-247",
                "text": {
                    "div": "<div>Chest pain</div>",
                    "status": "generated"
                },
                "patient": {
                    "reference": "Patient/smart-767980"
                },
                "code": {
                    "coding": [
                        {
                            "system": "http://snomed.info/sct",
                            "code": "29857009",
                            "display": "Chest pain"
                        }
                    ],
                    "text": "Chest pain"
                },
                "clinicalStatus": "active",
                "verificationStatus": "confirmed",
                "onsetDateTime": "2004-08-12",
                "meta": {
                    "tag": [
                        {
                            "system": "https://smarthealthit.org/tags",
                            "code": "smart-8-2017"
                        }
                    ]
                }
            },
            "request": {
                "method": "PUT",
                "url": "Condition/smart-Condition-247"
            }
        },
        {
            "resource": {
                "resourceType": "Condition",
                "id": "smart-Condition-248",
                "text": {
                    "div": "<div>Essential hypertension</div>",
                    "status": "generated"
                },
                "patient": {
                    "reference": "Patient/smart-767980"
                },
                "code": {
                    "coding": [
                        {
                            "system": "http://snomed.info/sct",
                            "code": "38341003",
                            "display": "Essential hypertension"
                        }
                    ],
                    "text": "Essential hypertension"
                },
                "clinicalStatus": "active",
                "verificationStatus": "confirmed",
                "onsetDateTime": "2004-08-12",
                "meta": {
                    "tag": [
                        {
                            "system": "https://smarthealthit.org/tags",
                            "code": "smart-8-2017"
                        }
                    ]
                }
            },
            "request": {
                "method": "PUT",
                "url": "Condition/smart-Condition-248"
            }
        },
        {
            "resource": {
                "resourceType": "Condition",
                "id": "smart-Condition-249",
                "text": {
                    "div": "<div>H/O: peptic ulcer</div>",
                    "status": "generated"
                },
                "patient": {
                    "reference": "Patient/smart-767980"
                },
                "code": {
                    "coding": [
                        {
                            "system": "http://snomed.info/sct",
                            "code": "266998003",
                            "display": "H/O: peptic ulcer"
                        }
                    ],
                    "text": "H/O: peptic ulcer"
                },
                "clinicalStatus": "active",
                "verificationStatus": "confirmed",
                "onsetDateTime": "2004-08-12",
                "meta": {
                    "tag": [
                        {
                            "system": "https://smarthealthit.org/tags",
                            "code": "smart-8-2017"
                        }
                    ]
                }
            },
            "request": {
                "method": "PUT",
                "url": "Condition/smart-Condition-249"
            }
        },
        {
            "resource": {
                "resourceType": "Condition",
                "id": "smart-Condition-250",
                "text": {
                    "div": "<div>Painful respiration</div>",
                    "status": "generated"
                },
                "patient": {
                    "reference": "Patient/smart-767980"
                },
                "code": {
                    "coding": [
                        {
                            "system": "http://snomed.info/sct",
                            "code": "102588006",
                            "display": "Painful respiration"
                        }
                    ],
                    "text": "Painful respiration"
                },
                "clinicalStatus": "active",
                "verificationStatus": "confirmed",
                "onsetDateTime": "2004-08-12",
                "meta": {
                    "tag": [
                        {
                            "system": "https://smarthealthit.org/tags",
                            "code": "smart-8-2017"
                        }
                    ]
                }
            },
            "request": {
                "method": "PUT",
                "url": "Condition/smart-Condition-250"
            }
        },
        {
            "resource": {
                "resourceType": "Condition",
                "id": "smart-Condition-251",
                "text": {
                    "div": "<div>Pure hypercholesterolemia</div>",
                    "status": "generated"
                },
                "patient": {
                    "reference": "Patient/smart-767980"
                },
                "code": {
                    "coding": [
                        {
                            "system": "http://snomed.info/sct",
                            "code": "267432004",
                            "display": "Pure hypercholesterolemia"
                        }
                    ],
                    "text": "Pure hypercholesterolemia"
                },
                "clinicalStatus": "active",
                "verificationStatus": "confirmed",
                "onsetDateTime": "2004-08-12",
                "meta": {
                    "tag": [
                        {
                            "system": "https://smarthealthit.org/tags",
                            "code": "smart-8-2017"
                        }
                    ]
                }
            },
            "request": {
                "method": "PUT",
                "url": "Condition/smart-Condition-251"
            }
        },
        {
            "resource": {
                "resourceType": "Condition",
                "id": "smart-Condition-252",
                "text": {
                    "div": "<div>Tobacco dependence syndrome</div>",
                    "status": "generated"
                },
                "patient": {
                    "reference": "Patient/smart-767980"
                },
                "code": {
                    "coding": [
                        {
                            "system": "http://snomed.info/sct",
                            "code": "89765005",
                            "display": "Tobacco dependence syndrome"
                        }
                    ],
                    "text": "Tobacco dependence syndrome"
                },
                "clinicalStatus": "active",
                "verificationStatus": "confirmed",
                "onsetDateTime": "2004-08-12",
                "meta": {
                    "tag": [
                        {
                            "system": "https://smarthealthit.org/tags",
                            "code": "smart-8-2017"
                        }
                    ]
                }
            },
            "request": {
                "method": "PUT",
                "url": "Condition/smart-Condition-252"
            }
        },
        {
            "resource": {
                "resourceType": "Condition",
                "id": "smart-Condition-253",
                "text": {
                    "div": "<div>Bronchitis</div>",
                    "status": "generated"
                },
                "patient": {
                    "reference": "Patient/smart-767980"
                },
                "code": {
                    "coding": [
                        {
                            "system": "http://snomed.info/sct",
                            "code": "32398004",
                            "display": "Bronchitis"
                        }
                    ],
                    "text": "Bronchitis"
                },
                "clinicalStatus": "active",
                "verificationStatus": "confirmed",
                "onsetDateTime": "2004-10-18",
                "meta": {
                    "tag": [
                        {
                            "system": "https://smarthealthit.org/tags",
                            "code": "smart-8-2017"
                        }
                    ]
                }
            },
            "request": {
                "method": "PUT",
                "url": "Condition/smart-Condition-253"
            }
        },
        {
            "resource": {
                "resourceType": "Condition",
                "id": "smart-Condition-254",
                "text": {
                    "div": "<div>Blood chemistry abnormal</div>",
                    "status": "generated"
                },
                "patient": {
                    "reference": "Patient/smart-767980"
                },
                "code": {
                    "coding": [
                        {
                            "system": "http://snomed.info/sct",
                            "code": "80394007",
                            "display": "Blood chemistry abnormal"
                        }
                    ],
                    "text": "Blood chemistry abnormal"
                },
                "clinicalStatus": "active",
                "verificationStatus": "confirmed",
                "onsetDateTime": "2004-10-22",
                "meta": {
                    "tag": [
                        {
                            "system": "https://smarthealthit.org/tags",
                            "code": "smart-8-2017"
                        }
                    ]
                }
            },
            "request": {
                "method": "PUT",
                "url": "Condition/smart-Condition-254"
            }
        },
        {
            "resource": {
                "resourceType": "Condition",
                "id": "smart-Condition-255",
                "text": {
                    "div": "<div>Acute upper respiratory infection</div>",
                    "status": "generated"
                },
                "patient": {
                    "reference": "Patient/smart-767980"
                },
                "code": {
                    "coding": [
                        {
                            "system": "http://snomed.info/sct",
                            "code": "54150009",
                            "display": "Acute upper respiratory infection"
                        }
                    ],
                    "text": "Acute upper respiratory infection"
                },
                "clinicalStatus": "active",
                "verificationStatus": "confirmed",
                "onsetDateTime": "2004-12-10",
                "meta": {
                    "tag": [
                        {
                            "system": "https://smarthealthit.org/tags",
                            "code": "smart-8-2017"
                        }
                    ]
                }
            },
            "request": {
                "method": "PUT",
                "url": "Condition/smart-Condition-255"
            }
        },
        {
            "resource": {
                "resourceType": "Condition",
                "id": "smart-Condition-256",
                "text": {
                    "div": "<div>Diabetes mellitus type 2</div>",
                    "status": "generated"
                },
                "patient": {
                    "reference": "Patient/smart-767980"
                },
                "code": {
                    "coding": [
                        {
                            "system": "http://snomed.info/sct",
                            "code": "44054006",
                            "display": "Diabetes mellitus type 2"
                        }
                    ],
                    "text": "Diabetes mellitus type 2"
                },
                "clinicalStatus": "active",
                "verificationStatus": "confirmed",
                "onsetDateTime": "2004-12-10",
                "meta": {
                    "tag": [
                        {
                            "system": "https://smarthealthit.org/tags",
                            "code": "smart-8-2017"
                        }
                    ]
                }
            },
            "request": {
                "method": "PUT",
                "url": "Condition/smart-Condition-256"
            }
        },
        {
            "resource": {
                "resourceType": "Condition",
                "id": "smart-Condition-257",
                "text": {
                    "div": "<div>Needs influenza immunization</div>",
                    "status": "generated"
                },
                "patient": {
                    "reference": "Patient/smart-767980"
                },
                "code": {
                    "coding": [
                        {
                            "system": "http://snomed.info/sct",
                            "code": "185903001",
                            "display": "Needs influenza immunization"
                        }
                    ],
                    "text": "Needs influenza immunization"
                },
                "clinicalStatus": "active",
                "verificationStatus": "confirmed",
                "onsetDateTime": "2005-09-08",
                "meta": {
                    "tag": [
                        {
                            "system": "https://smarthealthit.org/tags",
                            "code": "smart-8-2017"
                        }
                    ]
                }
            },
            "request": {
                "method": "PUT",
                "url": "Condition/smart-Condition-257"
            }
        },
        {
            "resource": {
                "resourceType": "Condition",
                "id": "smart-Condition-258",
                "text": {
                    "div": "<div>Incomplete emptying of bladder</div>",
                    "status": "generated"
                },
                "patient": {
                    "reference": "Patient/smart-767980"
                },
                "code": {
                    "coding": [
                        {
                            "system": "http://snomed.info/sct",
                            "code": "249288007",
                            "display": "Incomplete emptying of bladder"
                        }
                    ],
                    "text": "Incomplete emptying of bladder"
                },
                "clinicalStatus": "active",
                "verificationStatus": "confirmed",
                "onsetDateTime": "2005-12-16",
                "meta": {
                    "tag": [
                        {
                            "system": "https://smarthealthit.org/tags",
                            "code": "smart-8-2017"
                        }
                    ]
                }
            },
            "request": {
                "method": "PUT",
                "url": "Condition/smart-Condition-258"
            }
        },
        {
            "resource": {
                "resourceType": "Observation",
                "id": "smart-Observation-14-smokingstatus",
                "text": {
                    "div": "<div>Tobacco smoking status: Current some day smoker</div>",
                    "status": "generated"
                },
                "category": {
                    "coding": [
                        {
                            "system": "http://hl7.org/fhir/observation-category",
                            "code": "social-history",
                            "display": "Social History"
                        }
                    ],
                    "text": "Social History"
                },
                "code": {
                    "coding": [
                        {
                            "system": "http://loinc.org",
                            "code": "72166-2",
                            "display": "Tobacco smoking status"
                        }
                    ],
                    "text": "Tobacco smoking status"
                },
                "valueCodeableConcept": {
                    "coding": [
                        {
                            "system": "http://snomed.info/sct",
                            "code": "428041000124106",
                            "display": "Current some day smoker"
                        }
                    ],
                    "text": "Current some day smoker"
                },
                "status": "final",
                "subject": {
                    "reference": "Patient/smart-767980"
                },
                "meta": {
                    "tag": [
                        {
                            "system": "https://smarthealthit.org/tags",
                            "code": "smart-8-2017"
                        }
                    ]
                }
            },
            "request": {
                "method": "PUT",
                "url": "Observation/smart-Observation-14-smokingstatus"
            }
        },
        {
            "resource": {
                "resourceType": "List",
                "id": "smart-List-12",
                "text": {
                    "div": "<div>No known allergies</div>",
                    "status": "generated"
                },
                "code": {
                    "coding": [
                        {
                            "system": "http://loinc.org/",
                            "code": "52473-6",
                            "display": "Allergy"
                        }
                    ],
                    "text": "Allergy"
                },
                "subject": {
                    "reference": "Patient/smart-767980"
                },
                "date": "2000",
                "mode": "snapshot",
                "emptyReason": {
                    "coding": [
                        {
                            "system": "http://hl7.org/fhir/list-empty-reason",
                            "code": "nilknown",
                            "display": "Nil Known"
                        }
                    ],
                    "text": "Nil Known"
                },
                "meta": {
                    "tag": [
                        {
                            "system": "https://smarthealthit.org/tags",
                            "code": "smart-8-2017"
                        }
                    ]
                }
            },
            "request": {
                "method": "PUT",
                "url": "List/smart-List-12"
            }
        }
    ]
}